,trial,item_l,item_r,choice,rt,subj,YesNo,response,item,Item_l,Item_r,Item,A,repetitions
0,1,stim_mmpeanut.jpg,stim_babyruth.jpg,2.0,2.089112,601.0,0.0,,,10.0,2.0,0.0,1.0,
1,2,stim_crunch.jpg,stim_snickers.jpg,1.0,1.386093,601.0,0.0,,,4.0,15.0,0.0,1.0,
2,3,stim_hundredgrand.jpg,stim_whoppers.jpg,1.0,1.052016,601.0,0.0,,,6.0,17.0,0.0,1.0,
3,4,stim_butterfinger.jpg,stim_babyruth.jpg,2.0,1.385985,601.0,0.0,,,3.0,2.0,0.0,1.0,
4,5,stim_kitkat.jpg,stim_mmchocolate.jpg,1.0,2.421315,601.0,0.0,,,7.0,9.0,0.0,1.0,
5,6,stim_snickers.jpg,stim_mmpeanut.jpg,1.0,0.935094,601.0,0.0,,,15.0,10.0,0.0,1.0,
6,7,stim_milkyway.jpg,stim_crunch.jpg,2.0,1.603061,601.0,0.0,,,8.0,4.0,0.0,1.0,
7,8,stim_sourpatchkids.jpg,stim_kitkat.jpg,2.0,0.951793,601.0,0.0,,,16.0,7.0,0.0,1.0,
8,9,stim_reeses.jpg,stim_mmchocolate.jpg,2.0,1.168888,601.0,0.0,,,13.0,9.0,0.0,1.0,
9,10,stim_reeses.jpg,stim_mmpeanut.jpg,2.0,2.053957,601.0,0.0,,,13.0,10.0,0.0,1.0,
10,11,stim_whoppers.jpg,stim_snickers.jpg,2.0,1.018565,601.0,0.0,,,17.0,15.0,0.0,1.0,
11,12,stim_milkyway.jpg,stim_mrgoodbar.jpg,1.0,0.801512,601.0,0.0,,,8.0,11.0,0.0,1.0,
12,13,stim_mrgoodbar.jpg,stim_mmchocolate.jpg,2.0,0.667914,601.0,0.0,,,11.0,9.0,0.0,1.0,
13,14,stim_snickers.jpg,stim_skittles.jpg,1.0,0.985197,601.0,0.0,,,15.0,14.0,0.0,1.0,
14,15,stim_sourpatchkids.jpg,stim_milkyway.jpg,2.0,0.951793,601.0,0.0,,,16.0,8.0,0.0,1.0,
15,16,stim_kitkat.jpg,stim_fruitsnacks.jpg,2.0,1.552963,601.0,0.0,,,7.0,5.0,0.0,1.0,
16,17,stim_mmpeanut.jpg,stim_payday.jpg,2.0,3.790626,601.0,0.0,,,10.0,12.0,0.0,1.0,
17,18,stim_almondjoy.jpg,stim_hundredgrand.jpg,2.0,1.385982,601.0,0.0,,,1.0,6.0,0.0,1.0,
18,19,stim_kitkat.jpg,stim_crunch.jpg,1.0,1.603086,601.0,0.0,,,7.0,4.0,0.0,1.0,
19,20,stim_whoppers.jpg,stim_mrgoodbar.jpg,1.0,2.170821,601.0,0.0,,,17.0,11.0,0.0,1.0,
20,21,stim_milkyway.jpg,stim_mmchocolate.jpg,2.0,0.985207,601.0,0.0,,,8.0,9.0,0.0,1.0,
21,22,stim_whoppers.jpg,stim_milkyway.jpg,2.0,2.087342,601.0,0.0,,,17.0,8.0,0.0,1.0,
22,23,stim_almondjoy.jpg,stim_snickers.jpg,2.0,1.185601,601.0,0.0,,,1.0,15.0,0.0,1.0,
23,24,stim_fruitsnacks.jpg,stim_butterfinger.jpg,1.0,0.834927,601.0,0.0,,,5.0,3.0,0.0,1.0,
24,25,stim_whoppers.jpg,stim_babyruth.jpg,1.0,1.135472,601.0,0.0,,,17.0,2.0,0.0,1.0,
25,26,stim_skittles.jpg,stim_sourpatchkids.jpg,1.0,1.052002,601.0,0.0,,,14.0,16.0,0.0,1.0,
26,27,stim_butterfinger.jpg,stim_snickers.jpg,2.0,1.2023,601.0,0.0,,,3.0,15.0,0.0,1.0,
27,28,stim_mmchocolate.jpg,stim_babyruth.jpg,1.0,0.834905,601.0,0.0,,,9.0,2.0,0.0,1.0,
28,29,stim_kitkat.jpg,stim_milkyway.jpg,1.0,0.851626,601.0,0.0,,,7.0,8.0,0.0,1.0,
29,30,stim_mrgoodbar.jpg,stim_crunch.jpg,2.0,0.784843,601.0,0.0,,,11.0,4.0,0.0,1.0,
30,31,stim_skittles.jpg,stim_crunch.jpg,2.0,1.10211,601.0,0.0,,,14.0,4.0,0.0,1.0,
31,32,stim_almondjoy.jpg,stim_milkyway.jpg,2.0,1.319225,601.0,0.0,,,1.0,8.0,0.0,1.0,
32,33,stim_butterfinger.jpg,stim_milkyway.jpg,2.0,0.751453,601.0,0.0,,,3.0,8.0,0.0,1.0,
33,34,stim_fruitsnacks.jpg,stim_almondjoy.jpg,1.0,0.901699,601.0,0.0,,,5.0,1.0,0.0,1.0,
34,35,stim_crunch.jpg,stim_fruitsnacks.jpg,2.0,0.951802,601.0,0.0,,,4.0,5.0,0.0,1.0,
35,36,stim_babyruth.jpg,stim_hundredgrand.jpg,2.0,1.035323,601.0,0.0,,,2.0,6.0,0.0,1.0,
36,37,stim_kitkat.jpg,stim_babyruth.jpg,1.0,0.851606,601.0,0.0,,,7.0,2.0,0.0,1.0,
37,38,stim_skittles.jpg,stim_fruitsnacks.jpg,2.0,0.818261,601.0,0.0,,,14.0,5.0,0.0,1.0,
38,39,stim_butterfinger.jpg,stim_whoppers.jpg,2.0,1.285785,601.0,0.0,,,3.0,17.0,0.0,1.0,
39,40,stim_mmpeanut.jpg,stim_mmchocolate.jpg,2.0,1.00191,601.0,0.0,,,10.0,9.0,0.0,1.0,
40,41,stim_payday.jpg,stim_sourpatchkids.jpg,2.0,2.354546,601.0,0.0,,,12.0,16.0,0.0,1.0,
41,42,stim_sourpatchkids.jpg,stim_crunch.jpg,2.0,0.701322,601.0,0.0,,,16.0,4.0,0.0,1.0,
42,43,stim_hundredgrand.jpg,stim_payday.jpg,1.0,0.935111,601.0,0.0,,,6.0,12.0,0.0,1.0,
43,44,stim_snickers.jpg,stim_mrgoodbar.jpg,1.0,0.868293,601.0,0.0,,,15.0,11.0,0.0,1.0,
44,45,stim_milkyway.jpg,stim_hundredgrand.jpg,1.0,0.768108,601.0,0.0,,,8.0,6.0,0.0,1.0,
45,46,stim_reeses.jpg,stim_snickers.jpg,2.0,0.818244,601.0,0.0,,,13.0,15.0,0.0,1.0,
46,47,stim_crunch.jpg,stim_butterfinger.jpg,1.0,0.918413,601.0,0.0,,,4.0,3.0,0.0,1.0,
47,48,stim_butterfinger.jpg,stim_skittles.jpg,2.0,1.870237,601.0,0.0,,,3.0,14.0,0.0,1.0,
48,49,stim_hundredgrand.jpg,stim_snickers.jpg,2.0,0.8683,601.0,0.0,,,6.0,15.0,0.0,1.0,
49,50,stim_butterfinger.jpg,stim_almondjoy.jpg,2.0,3.022594,601.0,0.0,,,3.0,1.0,0.0,1.0,
50,51,stim_hundredgrand.jpg,stim_reeses.jpg,1.0,1.30248,601.0,0.0,,,6.0,13.0,0.0,1.0,
51,52,stim_payday.jpg,stim_almondjoy.jpg,2.0,2.304416,601.0,0.0,,,12.0,1.0,0.0,1.0,
52,53,stim_reeses.jpg,stim_crunch.jpg,2.0,1.502876,601.0,0.0,,,13.0,4.0,0.0,1.0,
53,54,stim_fruitsnacks.jpg,stim_milkyway.jpg,1.0,0.75144,601.0,0.0,,,5.0,8.0,0.0,1.0,
54,55,stim_reeses.jpg,stim_whoppers.jpg,2.0,1.001923,601.0,0.0,,,13.0,17.0,0.0,1.0,
55,56,stim_milkyway.jpg,stim_skittles.jpg,1.0,1.385977,601.0,0.0,,,8.0,14.0,0.0,1.0,
56,57,stim_mrgoodbar.jpg,stim_babyruth.jpg,2.0,2.13744,601.0,0.0,,,11.0,2.0,0.0,1.0,
57,58,stim_whoppers.jpg,stim_almondjoy.jpg,1.0,1.452769,601.0,0.0,,,17.0,1.0,0.0,1.0,
58,59,stim_hundredgrand.jpg,stim_mmpeanut.jpg,1.0,1.018605,601.0,0.0,,,6.0,10.0,0.0,1.0,
59,60,stim_kitkat.jpg,stim_mmpeanut.jpg,1.0,0.66791,601.0,0.0,,,7.0,10.0,0.0,1.0,
60,61,stim_almondjoy.jpg,stim_sourpatchkids.jpg,1.0,2.805383,601.0,0.0,,,1.0,16.0,0.0,1.0,
61,62,stim_whoppers.jpg,stim_skittles.jpg,1.0,0.66792,601.0,0.0,,,17.0,14.0,0.0,1.0,
62,63,stim_kitkat.jpg,stim_snickers.jpg,1.0,0.834924,601.0,0.0,,,7.0,15.0,0.0,1.0,
63,64,stim_snickers.jpg,stim_mmchocolate.jpg,2.0,1.953712,601.0,0.0,,,15.0,9.0,0.0,1.0,
64,65,stim_mrgoodbar.jpg,stim_fruitsnacks.jpg,2.0,0.885011,601.0,0.0,,,11.0,5.0,0.0,1.0,
65,66,stim_crunch.jpg,stim_mmpeanut.jpg,1.0,0.751406,601.0,0.0,,,4.0,10.0,0.0,1.0,
66,67,stim_fruitsnacks.jpg,stim_sourpatchkids.jpg,1.0,0.718032,601.0,0.0,,,5.0,16.0,0.0,1.0,
67,68,stim_butterfinger.jpg,stim_kitkat.jpg,2.0,0.734729,601.0,0.0,,,3.0,7.0,0.0,1.0,
68,69,stim_kitkat.jpg,stim_almondjoy.jpg,1.0,0.884996,601.0,0.0,,,7.0,1.0,0.0,1.0,
69,70,stim_reeses.jpg,stim_fruitsnacks.jpg,2.0,0.718008,601.0,0.0,,,13.0,5.0,0.0,1.0,
70,71,stim_babyruth.jpg,stim_crunch.jpg,2.0,0.985229,601.0,0.0,,,2.0,4.0,0.0,1.0,
71,72,stim_kitkat.jpg,stim_reeses.jpg,1.0,0.651238,601.0,0.0,,,7.0,13.0,0.0,1.0,
72,73,stim_sourpatchkids.jpg,stim_whoppers.jpg,2.0,0.968507,601.0,0.0,,,16.0,17.0,0.0,1.0,
73,74,stim_milkyway.jpg,stim_snickers.jpg,2.0,1.035325,601.0,0.0,,,8.0,15.0,0.0,1.0,
74,75,stim_payday.jpg,stim_babyruth.jpg,2.0,1.068708,601.0,0.0,,,12.0,2.0,0.0,1.0,
75,76,stim_payday.jpg,stim_mmchocolate.jpg,2.0,0.734739,601.0,0.0,,,12.0,9.0,0.0,1.0,
76,77,stim_milkyway.jpg,stim_payday.jpg,1.0,0.784824,601.0,0.0,,,8.0,12.0,0.0,1.0,
77,78,stim_babyruth.jpg,stim_almondjoy.jpg,1.0,0.985199,601.0,0.0,,,2.0,1.0,0.0,1.0,
78,79,stim_mrgoodbar.jpg,stim_kitkat.jpg,2.0,0.651248,601.0,0.0,,,11.0,7.0,0.0,1.0,
79,80,stim_skittles.jpg,stim_hundredgrand.jpg,2.0,1.168877,601.0,0.0,,,14.0,6.0,0.0,1.0,
80,81,stim_snickers.jpg,stim_payday.jpg,1.0,0.951801,601.0,0.0,,,15.0,12.0,0.0,1.0,
81,82,stim_mmpeanut.jpg,stim_mrgoodbar.jpg,2.0,3.38985,601.0,0.0,,,10.0,11.0,0.0,1.0,
82,83,stim_mmchocolate.jpg,stim_crunch.jpg,1.0,0.651304,601.0,0.0,,,9.0,4.0,0.0,1.0,
83,84,stim_mmpeanut.jpg,stim_butterfinger.jpg,1.0,2.271009,601.0,0.0,,,10.0,3.0,0.0,1.0,
84,85,stim_mmpeanut.jpg,stim_whoppers.jpg,2.0,1.068744,601.0,0.0,,,10.0,17.0,0.0,1.0,
85,86,stim_reeses.jpg,stim_almondjoy.jpg,2.0,1.853572,601.0,0.0,,,13.0,1.0,0.0,1.0,
86,87,stim_fruitsnacks.jpg,stim_mmchocolate.jpg,1.0,0.818199,601.0,0.0,,,5.0,9.0,0.0,1.0,
87,88,stim_mmpeanut.jpg,stim_fruitsnacks.jpg,2.0,0.768117,601.0,0.0,,,10.0,5.0,0.0,1.0,
88,89,stim_skittles.jpg,stim_kitkat.jpg,2.0,1.001953,601.0,0.0,,,14.0,7.0,0.0,1.0,
89,90,stim_mmchocolate.jpg,stim_skittles.jpg,1.0,0.684616,601.0,0.0,,,9.0,14.0,0.0,1.0,
90,91,stim_mrgoodbar.jpg,stim_sourpatchkids.jpg,2.0,2.087348,601.0,0.0,,,11.0,16.0,0.0,1.0,
91,92,stim_payday.jpg,stim_skittles.jpg,2.0,1.369285,601.0,0.0,,,12.0,14.0,0.0,1.0,
92,93,stim_almondjoy.jpg,stim_skittles.jpg,2.0,1.770048,601.0,0.0,,,1.0,14.0,0.0,1.0,
93,94,stim_whoppers.jpg,stim_crunch.jpg,2.0,1.352594,601.0,0.0,,,17.0,4.0,0.0,1.0,
94,95,stim_kitkat.jpg,stim_payday.jpg,1.0,0.768134,601.0,0.0,,,7.0,12.0,0.0,1.0,
95,96,stim_sourpatchkids.jpg,stim_mmchocolate.jpg,2.0,0.684658,601.0,0.0,,,16.0,9.0,0.0,1.0,
96,97,stim_crunch.jpg,stim_almondjoy.jpg,1.0,0.91842,601.0,0.0,,,4.0,1.0,0.0,1.0,
97,98,stim_hundredgrand.jpg,stim_sourpatchkids.jpg,1.0,0.718011,601.0,0.0,,,6.0,16.0,0.0,1.0,
98,99,stim_snickers.jpg,stim_babyruth.jpg,1.0,0.801524,601.0,0.0,,,15.0,2.0,0.0,1.0,
99,100,stim_butterfinger.jpg,stim_sourpatchkids.jpg,2.0,0.968521,601.0,0.0,,,3.0,16.0,0.0,1.0,
100,101,stim_fruitsnacks.jpg,stim_hundredgrand.jpg,1.0,0.634517,601.0,0.0,,,5.0,6.0,0.0,1.0,
101,102,stim_milkyway.jpg,stim_babyruth.jpg,1.0,1.202293,601.0,0.0,,,8.0,2.0,0.0,1.0,
102,103,stim_fruitsnacks.jpg,stim_whoppers.jpg,1.0,0.63453,601.0,0.0,,,5.0,17.0,0.0,1.0,
103,104,stim_snickers.jpg,stim_sourpatchkids.jpg,1.0,1.68656,601.0,0.0,,,15.0,16.0,0.0,1.0,
104,105,stim_mmchocolate.jpg,stim_almondjoy.jpg,1.0,0.734726,601.0,0.0,,,9.0,1.0,0.0,1.0,
105,106,stim_babyruth.jpg,stim_fruitsnacks.jpg,2.0,0.70133,601.0,0.0,,,2.0,5.0,0.0,1.0,
106,107,stim_payday.jpg,stim_mrgoodbar.jpg,2.0,2.25433,601.0,0.0,,,12.0,11.0,0.0,1.0,
107,108,stim_payday.jpg,stim_crunch.jpg,2.0,0.718037,601.0,0.0,,,12.0,4.0,0.0,1.0,
108,109,stim_sourpatchkids.jpg,stim_babyruth.jpg,1.0,2.18753,601.0,0.0,,,16.0,2.0,0.0,1.0,
109,110,stim_mrgoodbar.jpg,stim_hundredgrand.jpg,2.0,0.91841,601.0,0.0,,,11.0,6.0,0.0,1.0,
110,111,stim_skittles.jpg,stim_reeses.jpg,1.0,0.935093,601.0,0.0,,,14.0,13.0,0.0,1.0,
111,112,stim_almondjoy.jpg,stim_mrgoodbar.jpg,1.0,1.519574,601.0,0.0,,,1.0,11.0,0.0,1.0,
112,113,stim_reeses.jpg,stim_sourpatchkids.jpg,2.0,1.202283,601.0,0.0,,,13.0,16.0,0.0,1.0,
113,114,stim_reeses.jpg,stim_butterfinger.jpg,1.0,2.671834,601.0,0.0,,,13.0,3.0,0.0,1.0,
114,115,stim_skittles.jpg,stim_babyruth.jpg,1.0,1.937049,601.0,0.0,,,14.0,2.0,0.0,1.0,
115,116,stim_reeses.jpg,stim_milkyway.jpg,2.0,1.419382,601.0,0.0,,,13.0,8.0,0.0,1.0,
116,117,stim_reeses.jpg,stim_mrgoodbar.jpg,2.0,1.686549,601.0,0.0,,,13.0,11.0,0.0,1.0,
117,118,stim_kitkat.jpg,stim_whoppers.jpg,1.0,0.968522,601.0,0.0,,,7.0,17.0,0.0,1.0,
118,119,stim_skittles.jpg,stim_mrgoodbar.jpg,1.0,0.985234,601.0,0.0,,,14.0,11.0,0.0,1.0,
119,120,stim_fruitsnacks.jpg,stim_snickers.jpg,1.0,0.651236,601.0,0.0,,,5.0,15.0,0.0,1.0,
120,121,stim_milkyway.jpg,stim_mmpeanut.jpg,1.0,1.035297,601.0,0.0,,,8.0,10.0,0.0,1.0,
121,122,stim_payday.jpg,stim_whoppers.jpg,2.0,1.436083,601.0,0.0,,,12.0,17.0,0.0,1.0,
122,123,stim_babyruth.jpg,stim_reeses.jpg,1.0,1.001897,601.0,0.0,,,2.0,13.0,0.0,1.0,
123,124,stim_hundredgrand.jpg,stim_crunch.jpg,2.0,1.001911,601.0,0.0,,,6.0,4.0,0.0,1.0,
124,125,stim_mrgoodbar.jpg,stim_butterfinger.jpg,1.0,1.218993,601.0,0.0,,,11.0,3.0,0.0,1.0,
125,126,stim_skittles.jpg,stim_mmpeanut.jpg,1.0,0.801544,601.0,0.0,,,14.0,10.0,0.0,1.0,
126,127,stim_payday.jpg,stim_fruitsnacks.jpg,2.0,0.784822,601.0,0.0,,,12.0,5.0,0.0,1.0,
127,128,stim_mmpeanut.jpg,stim_almondjoy.jpg,2.0,1.319189,601.0,0.0,,,10.0,1.0,0.0,1.0,
128,129,stim_whoppers.jpg,stim_mmchocolate.jpg,2.0,0.651219,601.0,0.0,,,17.0,9.0,0.0,1.0,
129,130,stim_hundredgrand.jpg,stim_butterfinger.jpg,1.0,0.751453,601.0,0.0,,,6.0,3.0,0.0,1.0,
130,131,stim_kitkat.jpg,stim_hundredgrand.jpg,1.0,1.452771,601.0,0.0,,,7.0,6.0,0.0,1.0,
131,132,stim_payday.jpg,stim_butterfinger.jpg,1.0,3.206162,601.0,0.0,,,12.0,3.0,0.0,1.0,
132,133,stim_payday.jpg,stim_reeses.jpg,2.0,1.903636,601.0,0.0,,,12.0,13.0,0.0,1.0,
133,134,stim_hundredgrand.jpg,stim_mmchocolate.jpg,2.0,0.784812,601.0,0.0,,,6.0,9.0,0.0,1.0,
134,135,stim_mmpeanut.jpg,stim_sourpatchkids.jpg,2.0,1.102091,601.0,0.0,,,10.0,16.0,0.0,1.0,
135,136,stim_mmchocolate.jpg,stim_butterfinger.jpg,1.0,0.701323,601.0,0.0,,,9.0,3.0,0.0,1.0,
136,1,,,,4.374971,601.0,1.0,1.0,stim_babyruth.jpg,0.0,0.0,2.0,1.0,10.0
137,2,,,,3.207723,601.0,1.0,0.0,stim_payday.jpg,0.0,0.0,12.0,1.0,10.0
138,3,,,,3.976885,601.0,1.0,1.0,stim_hundredgrand.jpg,0.0,0.0,6.0,1.0,10.0
139,4,,,,3.659116,601.0,1.0,0.0,stim_skittles.jpg,0.0,0.0,14.0,1.0,10.0
140,5,,,,1.621398,601.0,1.0,0.0,stim_butterfinger.jpg,0.0,0.0,3.0,1.0,10.0
141,6,,,,1.153349,601.0,1.0,0.0,stim_almondjoy.jpg,0.0,0.0,1.0,1.0,10.0
142,7,,,,1.121364,601.0,1.0,0.0,stim_whoppers.jpg,0.0,0.0,17.0,1.0,10.0
143,8,,,,1.237774,601.0,1.0,1.0,stim_kitkat.jpg,0.0,0.0,7.0,1.0,10.0
144,9,,,,0.970573,601.0,1.0,0.0,stim_reeses.jpg,0.0,0.0,13.0,1.0,10.0
145,10,,,,1.721561,601.0,1.0,1.0,stim_mmchocolate.jpg,0.0,0.0,9.0,1.0,10.0
146,11,,,,0.853753,601.0,1.0,0.0,stim_sourpatchkids.jpg,0.0,0.0,16.0,1.0,10.0
147,12,,,,1.054591,601.0,1.0,1.0,stim_fruitsnacks.jpg,0.0,0.0,5.0,1.0,10.0
148,13,,,,1.019727,601.0,1.0,0.0,stim_mrgoodbar.jpg,0.0,0.0,11.0,1.0,10.0
149,14,,,,2.623782,601.0,1.0,1.0,stim_milkyway.jpg,0.0,0.0,8.0,1.0,10.0
150,15,,,,0.787405,601.0,1.0,0.0,stim_mmpeanut.jpg,0.0,0.0,10.0,1.0,10.0
151,16,,,,2.923413,601.0,1.0,1.0,stim_snickers.jpg,0.0,0.0,15.0,1.0,10.0
152,17,,,,1.989237,601.0,1.0,1.0,stim_crunch.jpg,0.0,0.0,4.0,1.0,10.0
153,18,,,,2.289813,601.0,1.0,1.0,stim_snickers.jpg,0.0,0.0,15.0,1.0,10.0
154,19,,,,1.287404,601.0,1.0,1.0,stim_milkyway.jpg,0.0,0.0,8.0,1.0,10.0
155,20,,,,1.154825,601.0,1.0,1.0,stim_babyruth.jpg,0.0,0.0,2.0,1.0,10.0
156,21,,,,1.119923,601.0,1.0,1.0,stim_hundredgrand.jpg,0.0,0.0,6.0,1.0,10.0
157,22,,,,1.004489,601.0,1.0,0.0,stim_payday.jpg,0.0,0.0,12.0,1.0,10.0
158,23,,,,0.787399,601.0,1.0,0.0,stim_whoppers.jpg,0.0,0.0,17.0,1.0,10.0
159,24,,,,0.652451,601.0,1.0,0.0,stim_reeses.jpg,0.0,0.0,13.0,1.0,10.0
160,25,,,,0.552631,601.0,1.0,0.0,stim_skittles.jpg,0.0,0.0,14.0,1.0,10.0
161,26,,,,0.653807,601.0,1.0,0.0,stim_mrgoodbar.jpg,0.0,0.0,11.0,1.0,10.0
162,27,,,,1.20497,601.0,1.0,1.0,stim_fruitsnacks.jpg,0.0,0.0,5.0,1.0,10.0
163,28,,,,1.053649,601.0,1.0,1.0,stim_mmchocolate.jpg,0.0,0.0,9.0,1.0,10.0
164,29,,,,0.852824,601.0,1.0,0.0,stim_almondjoy.jpg,0.0,0.0,1.0,1.0,10.0
165,30,,,,0.886151,601.0,1.0,0.0,stim_sourpatchkids.jpg,0.0,0.0,16.0,1.0,10.0
166,31,,,,1.203904,601.0,1.0,1.0,stim_kitkat.jpg,0.0,0.0,7.0,1.0,10.0
167,32,,,,0.736336,601.0,1.0,0.0,stim_mmpeanut.jpg,0.0,0.0,10.0,1.0,10.0
168,33,,,,1.0207,601.0,1.0,1.0,stim_crunch.jpg,0.0,0.0,4.0,1.0,10.0
169,34,,,,0.819383,601.0,1.0,0.0,stim_butterfinger.jpg,0.0,0.0,3.0,1.0,10.0
170,35,,,,0.837026,601.0,1.0,1.0,stim_crunch.jpg,0.0,0.0,4.0,1.0,10.0
171,36,,,,0.703025,601.0,1.0,0.0,stim_mrgoodbar.jpg,0.0,0.0,11.0,1.0,10.0
172,37,,,,1.588461,601.0,1.0,0.0,stim_skittles.jpg,0.0,0.0,14.0,1.0,10.0
173,38,,,,2.690099,601.0,1.0,0.0,stim_babyruth.jpg,0.0,0.0,2.0,1.0,10.0
174,39,,,,1.355174,601.0,1.0,1.0,stim_kitkat.jpg,0.0,0.0,7.0,1.0,10.0
175,40,,,,0.852742,601.0,1.0,0.0,stim_whoppers.jpg,0.0,0.0,17.0,1.0,10.0
176,41,,,,0.936275,601.0,1.0,0.0,stim_almondjoy.jpg,0.0,0.0,1.0,1.0,10.0
177,42,,,,1.253506,601.0,1.0,1.0,stim_milkyway.jpg,0.0,0.0,8.0,1.0,10.0
178,43,,,,0.937292,601.0,1.0,1.0,stim_hundredgrand.jpg,0.0,0.0,6.0,1.0,10.0
179,44,,,,0.737314,601.0,1.0,0.0,stim_butterfinger.jpg,0.0,0.0,3.0,1.0,10.0
180,45,,,,1.020229,601.0,1.0,1.0,stim_snickers.jpg,0.0,0.0,15.0,1.0,10.0
181,46,,,,0.953923,601.0,1.0,0.0,stim_mmpeanut.jpg,0.0,0.0,10.0,1.0,10.0
182,47,,,,0.787387,601.0,1.0,0.0,stim_sourpatchkids.jpg,0.0,0.0,16.0,1.0,10.0
183,48,,,,0.803576,601.0,1.0,0.0,stim_reeses.jpg,0.0,0.0,13.0,1.0,10.0
184,49,,,,0.936235,601.0,1.0,1.0,stim_mmchocolate.jpg,0.0,0.0,9.0,1.0,10.0
185,50,,,,1.320292,601.0,1.0,0.0,stim_payday.jpg,0.0,0.0,12.0,1.0,10.0
186,51,,,,0.852734,601.0,1.0,1.0,stim_fruitsnacks.jpg,0.0,0.0,5.0,1.0,10.0
187,52,,,,0.737286,601.0,1.0,0.0,stim_almondjoy.jpg,0.0,0.0,1.0,1.0,10.0
188,53,,,,1.054579,601.0,1.0,0.0,stim_reeses.jpg,0.0,0.0,13.0,1.0,10.0
189,54,,,,1.455332,601.0,1.0,0.0,stim_mrgoodbar.jpg,0.0,0.0,11.0,1.0,10.0
190,55,,,,0.869465,601.0,1.0,0.0,stim_skittles.jpg,0.0,0.0,14.0,1.0,10.0
191,56,,,,1.305086,601.0,1.0,0.0,stim_babyruth.jpg,0.0,0.0,2.0,1.0,10.0
192,57,,,,0.736359,601.0,1.0,0.0,stim_payday.jpg,0.0,0.0,12.0,1.0,10.0
193,58,,,,1.087013,601.0,1.0,1.0,stim_snickers.jpg,0.0,0.0,15.0,1.0,10.0
194,59,,,,1.036424,601.0,1.0,0.0,stim_whoppers.jpg,0.0,0.0,17.0,1.0,10.0
195,60,,,,1.504478,601.0,1.0,0.0,stim_butterfinger.jpg,0.0,0.0,3.0,1.0,10.0
196,61,,,,2.272662,601.0,1.0,1.0,stim_kitkat.jpg,0.0,0.0,7.0,1.0,10.0
197,62,,,,1.988274,601.0,1.0,1.0,stim_crunch.jpg,0.0,0.0,4.0,1.0,10.0
198,63,,,,0.937687,601.0,1.0,1.0,stim_mmchocolate.jpg,0.0,0.0,9.0,1.0,10.0
199,64,,,,0.954398,601.0,1.0,1.0,stim_milkyway.jpg,0.0,0.0,8.0,1.0,10.0
200,65,,,,1.220127,601.0,1.0,1.0,stim_fruitsnacks.jpg,0.0,0.0,5.0,1.0,10.0
201,66,,,,0.88664,601.0,1.0,0.0,stim_mmpeanut.jpg,0.0,0.0,10.0,1.0,10.0
202,67,,,,0.653793,601.0,1.0,0.0,stim_sourpatchkids.jpg,0.0,0.0,16.0,1.0,10.0
203,68,,,,1.120871,601.0,1.0,1.0,stim_hundredgrand.jpg,0.0,0.0,6.0,1.0,10.0
204,69,,,,0.969638,601.0,1.0,0.0,stim_butterfinger.jpg,0.0,0.0,3.0,1.0,10.0
205,70,,,,0.753982,601.0,1.0,1.0,stim_milkyway.jpg,0.0,0.0,8.0,1.0,10.0
206,71,,,,1.421036,601.0,1.0,0.0,stim_mmpeanut.jpg,0.0,0.0,10.0,1.0,10.0
207,72,,,,0.87091,601.0,1.0,0.0,stim_payday.jpg,0.0,0.0,12.0,1.0,10.0
208,73,,,,1.02018,601.0,1.0,1.0,stim_snickers.jpg,0.0,0.0,15.0,1.0,10.0
209,74,,,,1.405329,601.0,1.0,0.0,stim_whoppers.jpg,0.0,0.0,17.0,1.0,10.0
210,75,,,,1.021137,601.0,1.0,0.0,stim_sourpatchkids.jpg,0.0,0.0,16.0,1.0,10.0
211,76,,,,1.604132,601.0,1.0,0.0,stim_babyruth.jpg,0.0,0.0,2.0,1.0,10.0
212,77,,,,0.770672,601.0,1.0,0.0,stim_reeses.jpg,0.0,0.0,13.0,1.0,10.0
213,78,,,,0.735882,601.0,1.0,0.0,stim_mrgoodbar.jpg,0.0,0.0,11.0,1.0,10.0
214,79,,,,0.887116,601.0,1.0,1.0,stim_mmchocolate.jpg,0.0,0.0,9.0,1.0,10.0
215,80,,,,1.320351,601.0,1.0,0.0,stim_skittles.jpg,0.0,0.0,14.0,1.0,10.0
216,81,,,,0.652469,601.0,1.0,0.0,stim_almondjoy.jpg,0.0,0.0,1.0,1.0,10.0
217,82,,,,0.920514,601.0,1.0,1.0,stim_hundredgrand.jpg,0.0,0.0,6.0,1.0,10.0
218,83,,,,0.902864,601.0,1.0,1.0,stim_crunch.jpg,0.0,0.0,4.0,1.0,10.0
219,84,,,,0.785951,601.0,1.0,1.0,stim_kitkat.jpg,0.0,0.0,7.0,1.0,10.0
220,85,,,,0.769708,601.0,1.0,1.0,stim_fruitsnacks.jpg,0.0,0.0,5.0,1.0,10.0
221,86,,,,1.89509,601.0,1.0,0.0,stim_babyruth.jpg,0.0,0.0,2.0,1.0,10.0
222,87,,,,1.35444,601.0,1.0,1.0,stim_milkyway.jpg,0.0,0.0,8.0,1.0,10.0
223,88,,,,0.837023,601.0,1.0,0.0,stim_sourpatchkids.jpg,0.0,0.0,16.0,1.0,10.0
224,89,,,,0.936271,601.0,1.0,1.0,stim_snickers.jpg,0.0,0.0,15.0,1.0,10.0
225,90,,,,0.936706,601.0,1.0,1.0,stim_kitkat.jpg,0.0,0.0,7.0,1.0,10.0
226,91,,,,0.736834,601.0,1.0,1.0,stim_crunch.jpg,0.0,0.0,4.0,1.0,10.0
227,92,,,,0.836514,601.0,1.0,0.0,stim_butterfinger.jpg,0.0,0.0,3.0,1.0,10.0
228,93,,,,0.837473,601.0,1.0,0.0,stim_almondjoy.jpg,0.0,0.0,1.0,1.0,10.0
229,94,,,,0.921009,601.0,1.0,1.0,stim_fruitsnacks.jpg,0.0,0.0,5.0,1.0,10.0
230,95,,,,0.652866,601.0,1.0,0.0,stim_payday.jpg,0.0,0.0,12.0,1.0,10.0
231,96,,,,0.83749,601.0,1.0,0.0,stim_mmpeanut.jpg,0.0,0.0,10.0,1.0,10.0
232,97,,,,0.670516,601.0,1.0,0.0,stim_reeses.jpg,0.0,0.0,13.0,1.0,10.0
233,98,,,,1.137176,601.0,1.0,1.0,stim_hundredgrand.jpg,0.0,0.0,6.0,1.0,10.0
234,99,,,,0.820312,601.0,1.0,0.0,stim_skittles.jpg,0.0,0.0,14.0,1.0,10.0
235,100,,,,0.986358,601.0,1.0,0.0,stim_mrgoodbar.jpg,0.0,0.0,11.0,1.0,10.0
236,101,,,,0.653857,601.0,1.0,0.0,stim_whoppers.jpg,0.0,0.0,17.0,1.0,10.0
237,102,,,,1.020705,601.0,1.0,1.0,stim_mmchocolate.jpg,0.0,0.0,9.0,1.0,10.0
238,103,,,,2.457298,601.0,1.0,0.0,stim_babyruth.jpg,0.0,0.0,2.0,1.0,10.0
239,104,,,,4.844258,601.0,1.0,1.0,stim_milkyway.jpg,0.0,0.0,8.0,1.0,10.0
240,105,,,,2.72352,601.0,1.0,0.0,stim_reeses.jpg,0.0,0.0,13.0,1.0,10.0
241,106,,,,0.71966,601.0,1.0,0.0,stim_payday.jpg,0.0,0.0,12.0,1.0,10.0
242,107,,,,0.753043,601.0,1.0,1.0,stim_crunch.jpg,0.0,0.0,4.0,1.0,10.0
243,108,,,,0.737304,601.0,1.0,0.0,stim_mmpeanut.jpg,0.0,0.0,10.0,1.0,10.0
244,109,,,,2.056508,601.0,1.0,1.0,stim_kitkat.jpg,0.0,0.0,7.0,1.0,10.0
245,110,,,,1.988266,601.0,1.0,1.0,stim_snickers.jpg,0.0,0.0,15.0,1.0,10.0
246,111,,,,1.119883,601.0,1.0,1.0,stim_fruitsnacks.jpg,0.0,0.0,5.0,1.0,10.0
247,112,,,,0.652403,601.0,1.0,0.0,stim_whoppers.jpg,0.0,0.0,17.0,1.0,10.0
248,113,,,,1.02021,601.0,1.0,1.0,stim_mmchocolate.jpg,0.0,0.0,9.0,1.0,10.0
249,114,,,,1.704395,601.0,1.0,0.0,stim_skittles.jpg,0.0,0.0,14.0,1.0,10.0
250,115,,,,2.071788,601.0,1.0,1.0,stim_almondjoy.jpg,0.0,0.0,1.0,1.0,10.0
251,116,,,,0.902867,601.0,1.0,0.0,stim_mrgoodbar.jpg,0.0,0.0,11.0,1.0,10.0
252,117,,,,0.786453,601.0,1.0,0.0,stim_butterfinger.jpg,0.0,0.0,3.0,1.0,10.0
253,118,,,,1.021196,601.0,1.0,1.0,stim_hundredgrand.jpg,0.0,0.0,6.0,1.0,10.0
254,119,,,,0.719652,601.0,1.0,0.0,stim_sourpatchkids.jpg,0.0,0.0,16.0,1.0,10.0
255,120,,,,1.605164,601.0,1.0,0.0,stim_skittles.jpg,0.0,0.0,14.0,1.0,10.0
256,121,,,,0.735835,601.0,1.0,0.0,stim_almondjoy.jpg,0.0,0.0,1.0,1.0,10.0
257,122,,,,0.769723,601.0,1.0,1.0,stim_crunch.jpg,0.0,0.0,4.0,1.0,10.0
258,123,,,,2.20629,601.0,1.0,0.0,stim_babyruth.jpg,0.0,0.0,2.0,1.0,10.0
259,124,,,,1.20441,601.0,1.0,1.0,stim_hundredgrand.jpg,0.0,0.0,6.0,1.0,10.0
260,125,,,,1.02021,601.0,1.0,1.0,stim_kitkat.jpg,0.0,0.0,7.0,1.0,10.0
261,126,,,,0.670075,601.0,1.0,0.0,stim_butterfinger.jpg,0.0,0.0,3.0,1.0,10.0
262,127,,,,0.803153,601.0,1.0,1.0,stim_mmchocolate.jpg,0.0,0.0,9.0,1.0,10.0
263,128,,,,1.320319,601.0,1.0,1.0,stim_milkyway.jpg,0.0,0.0,8.0,1.0,10.0
264,129,,,,0.686719,601.0,1.0,0.0,stim_mmpeanut.jpg,0.0,0.0,10.0,1.0,10.0
265,130,,,,0.720123,601.0,1.0,1.0,stim_snickers.jpg,0.0,0.0,15.0,1.0,10.0
266,131,,,,0.686241,601.0,1.0,0.0,stim_sourpatchkids.jpg,0.0,0.0,16.0,1.0,10.0
267,132,,,,1.12089,601.0,1.0,0.0,stim_reeses.jpg,0.0,0.0,13.0,1.0,10.0
268,133,,,,0.719199,601.0,1.0,1.0,stim_fruitsnacks.jpg,0.0,0.0,5.0,1.0,10.0
269,134,,,,0.703917,601.0,1.0,0.0,stim_mrgoodbar.jpg,0.0,0.0,11.0,1.0,10.0
270,135,,,,0.702495,601.0,1.0,0.0,stim_payday.jpg,0.0,0.0,12.0,1.0,10.0
271,136,,,,0.937122,601.0,1.0,0.0,stim_whoppers.jpg,0.0,0.0,17.0,1.0,10.0
272,137,,,,0.653741,601.0,1.0,0.0,stim_whoppers.jpg,0.0,0.0,17.0,1.0,10.0
273,138,,,,0.920519,601.0,1.0,1.0,stim_crunch.jpg,0.0,0.0,4.0,1.0,10.0
274,139,,,,0.736337,601.0,1.0,0.0,stim_reeses.jpg,0.0,0.0,13.0,1.0,10.0
275,140,,,,0.73681,601.0,1.0,0.0,stim_butterfinger.jpg,0.0,0.0,3.0,1.0,10.0
276,141,,,,0.870894,601.0,1.0,1.0,stim_snickers.jpg,0.0,0.0,15.0,1.0,10.0
277,142,,,,0.652842,601.0,1.0,0.0,stim_sourpatchkids.jpg,0.0,0.0,16.0,1.0,10.0
278,143,,,,0.953,601.0,1.0,0.0,stim_babyruth.jpg,0.0,0.0,2.0,1.0,10.0
279,144,,,,0.8027,601.0,1.0,1.0,stim_hundredgrand.jpg,0.0,0.0,6.0,1.0,10.0
280,145,,,,0.736814,601.0,1.0,0.0,stim_skittles.jpg,0.0,0.0,14.0,1.0,10.0
281,146,,,,0.68623,601.0,1.0,0.0,stim_almondjoy.jpg,0.0,0.0,1.0,1.0,10.0
282,147,,,,0.73684,601.0,1.0,0.0,stim_mmpeanut.jpg,0.0,0.0,10.0,1.0,10.0
283,148,,,,2.640492,601.0,1.0,1.0,stim_milkyway.jpg,0.0,0.0,8.0,1.0,10.0
284,149,,,,0.65333,601.0,1.0,0.0,stim_payday.jpg,0.0,0.0,12.0,1.0,10.0
285,150,,,,0.653339,601.0,1.0,0.0,stim_mrgoodbar.jpg,0.0,0.0,11.0,1.0,10.0
286,151,,,,0.83607,601.0,1.0,1.0,stim_kitkat.jpg,0.0,0.0,7.0,1.0,10.0
287,152,,,,1.153838,601.0,1.0,1.0,stim_mmchocolate.jpg,0.0,0.0,9.0,1.0,10.0
288,153,,,,0.836049,601.0,1.0,1.0,stim_fruitsnacks.jpg,0.0,0.0,5.0,1.0,10.0
289,154,,,,0.837017,601.0,1.0,1.0,stim_hundredgrand.jpg,0.0,0.0,6.0,1.0,10.0
290,155,,,,0.819346,601.0,1.0,1.0,stim_kitkat.jpg,0.0,0.0,7.0,1.0,10.0
291,156,,,,1.120446,601.0,1.0,1.0,stim_snickers.jpg,0.0,0.0,15.0,1.0,10.0
292,157,,,,1.889055,601.0,1.0,0.0,stim_babyruth.jpg,0.0,0.0,2.0,1.0,10.0
293,158,,,,0.937704,601.0,1.0,1.0,stim_crunch.jpg,0.0,0.0,4.0,1.0,10.0
294,159,,,,1.321751,601.0,1.0,1.0,stim_milkyway.jpg,0.0,0.0,8.0,1.0,10.0
295,160,,,,1.421472,601.0,1.0,0.0,stim_skittles.jpg,0.0,0.0,14.0,1.0,10.0
296,161,,,,0.787423,601.0,1.0,0.0,stim_almondjoy.jpg,0.0,0.0,1.0,1.0,10.0
297,162,,,,0.836529,601.0,1.0,0.0,stim_payday.jpg,0.0,0.0,12.0,1.0,10.0
298,163,,,,0.65383,601.0,1.0,0.0,stim_mmpeanut.jpg,0.0,0.0,10.0,1.0,10.0
299,164,,,,0.653329,601.0,1.0,0.0,stim_butterfinger.jpg,0.0,0.0,3.0,1.0,10.0
300,165,,,,0.752402,601.0,1.0,0.0,stim_reeses.jpg,0.0,0.0,13.0,1.0,10.0
301,166,,,,0.836968,601.0,1.0,1.0,stim_fruitsnacks.jpg,0.0,0.0,5.0,1.0,10.0
302,167,,,,0.653416,601.0,1.0,0.0,stim_mrgoodbar.jpg,0.0,0.0,11.0,1.0,10.0
303,168,,,,1.036943,601.0,1.0,0.0,stim_sourpatchkids.jpg,0.0,0.0,16.0,1.0,10.0
304,169,,,,1.119926,601.0,1.0,1.0,stim_mmchocolate.jpg,0.0,0.0,9.0,1.0,10.0
305,170,,,,0.720101,601.0,1.0,0.0,stim_whoppers.jpg,0.0,0.0,17.0,1.0,10.0
306,1,stim_babyruth.jpg,stim_butterfinger.jpg,1.0,2.807214,602.0,0.0,,,2.0,3.0,0.0,1.0,
307,2,stim_fruitsnacks.jpg,stim_whoppers.jpg,1.0,0.985237,602.0,0.0,,,5.0,17.0,0.0,1.0,
308,3,stim_almondjoy.jpg,stim_babyruth.jpg,2.0,0.818237,602.0,0.0,,,1.0,2.0,0.0,1.0,
309,4,stim_mrgoodbar.jpg,stim_milkyway.jpg,1.0,0.901907,602.0,0.0,,,11.0,8.0,0.0,1.0,
310,5,stim_snickers.jpg,stim_mmpeanut.jpg,2.0,2.989131,602.0,0.0,,,15.0,10.0,0.0,1.0,
311,6,stim_almondjoy.jpg,stim_hundredgrand.jpg,2.0,0.901715,602.0,0.0,,,1.0,6.0,0.0,1.0,
312,7,stim_fruitsnacks.jpg,stim_mmchocolate.jpg,1.0,0.885016,602.0,0.0,,,5.0,9.0,0.0,1.0,
313,8,stim_butterfinger.jpg,stim_snickers.jpg,1.0,0.88504,602.0,0.0,,,3.0,15.0,0.0,1.0,
314,9,stim_mrgoodbar.jpg,stim_butterfinger.jpg,2.0,1.870311,602.0,0.0,,,11.0,3.0,0.0,1.0,
315,10,stim_snickers.jpg,stim_hundredgrand.jpg,2.0,1.001927,602.0,0.0,,,15.0,6.0,0.0,1.0,
316,11,stim_payday.jpg,stim_snickers.jpg,1.0,0.968522,602.0,0.0,,,12.0,15.0,0.0,1.0,
317,12,stim_sourpatchkids.jpg,stim_mrgoodbar.jpg,2.0,2.05398,602.0,0.0,,,16.0,11.0,0.0,1.0,
318,13,stim_butterfinger.jpg,stim_skittles.jpg,1.0,0.718036,602.0,0.0,,,3.0,14.0,0.0,1.0,
319,14,stim_mmpeanut.jpg,stim_kitkat.jpg,1.0,0.835007,602.0,0.0,,,10.0,7.0,0.0,1.0,
320,15,stim_whoppers.jpg,stim_sourpatchkids.jpg,2.0,1.987182,602.0,0.0,,,17.0,16.0,0.0,1.0,
321,16,stim_reeses.jpg,stim_milkyway.jpg,1.0,0.834919,602.0,0.0,,,13.0,8.0,0.0,1.0,
322,17,stim_payday.jpg,stim_mmchocolate.jpg,1.0,0.768146,602.0,0.0,,,12.0,9.0,0.0,1.0,
323,18,stim_reeses.jpg,stim_crunch.jpg,2.0,2.538181,602.0,0.0,,,13.0,4.0,0.0,1.0,
324,19,stim_crunch.jpg,stim_mmchocolate.jpg,1.0,0.851637,602.0,0.0,,,4.0,9.0,0.0,1.0,
325,20,stim_whoppers.jpg,stim_milkyway.jpg,2.0,1.085459,602.0,0.0,,,17.0,8.0,0.0,1.0,
326,21,stim_almondjoy.jpg,stim_skittles.jpg,1.0,1.152167,602.0,0.0,,,1.0,14.0,0.0,1.0,
327,22,stim_fruitsnacks.jpg,stim_mmpeanut.jpg,2.0,1.152125,602.0,0.0,,,5.0,10.0,0.0,1.0,
328,23,stim_babyruth.jpg,stim_milkyway.jpg,1.0,0.718026,602.0,0.0,,,2.0,8.0,0.0,1.0,
329,24,stim_babyruth.jpg,stim_whoppers.jpg,1.0,0.768129,602.0,0.0,,,2.0,17.0,0.0,1.0,
330,25,stim_reeses.jpg,stim_fruitsnacks.jpg,2.0,1.653213,602.0,0.0,,,13.0,5.0,0.0,1.0,
331,26,stim_crunch.jpg,stim_hundredgrand.jpg,2.0,0.885022,602.0,0.0,,,4.0,6.0,0.0,1.0,
332,27,stim_crunch.jpg,stim_almondjoy.jpg,2.0,2.037286,602.0,0.0,,,4.0,1.0,0.0,1.0,
333,28,stim_snickers.jpg,stim_crunch.jpg,2.0,2.78867,602.0,0.0,,,15.0,4.0,0.0,1.0,
334,29,stim_almondjoy.jpg,stim_fruitsnacks.jpg,1.0,1.486182,602.0,0.0,,,1.0,5.0,0.0,1.0,
335,30,stim_butterfinger.jpg,stim_reeses.jpg,1.0,0.684611,602.0,0.0,,,3.0,13.0,0.0,1.0,
336,31,stim_hundredgrand.jpg,stim_mmchocolate.jpg,1.0,0.63464,602.0,0.0,,,6.0,9.0,0.0,1.0,
337,32,stim_hundredgrand.jpg,stim_mrgoodbar.jpg,1.0,1.001911,602.0,0.0,,,6.0,11.0,0.0,1.0,
338,33,stim_mmchocolate.jpg,stim_snickers.jpg,2.0,1.636486,602.0,0.0,,,9.0,15.0,0.0,1.0,
339,34,stim_sourpatchkids.jpg,stim_almondjoy.jpg,2.0,1.085384,602.0,0.0,,,16.0,1.0,0.0,1.0,
340,35,stim_snickers.jpg,stim_sourpatchkids.jpg,1.0,2.989133,602.0,0.0,,,15.0,16.0,0.0,1.0,
341,36,stim_kitkat.jpg,stim_sourpatchkids.jpg,1.0,0.935065,602.0,0.0,,,7.0,16.0,0.0,1.0,
342,37,stim_milkyway.jpg,stim_skittles.jpg,1.0,0.718027,602.0,0.0,,,8.0,14.0,0.0,1.0,
343,38,stim_mmpeanut.jpg,stim_reeses.jpg,1.0,0.91842,602.0,0.0,,,10.0,13.0,0.0,1.0,
344,39,stim_whoppers.jpg,stim_payday.jpg,2.0,1.03533,602.0,0.0,,,17.0,12.0,0.0,1.0,
345,40,stim_mrgoodbar.jpg,stim_payday.jpg,2.0,1.068733,602.0,0.0,,,11.0,12.0,0.0,1.0,
346,41,stim_babyruth.jpg,stim_sourpatchkids.jpg,1.0,0.784843,602.0,0.0,,,2.0,16.0,0.0,1.0,
347,42,stim_babyruth.jpg,stim_kitkat.jpg,1.0,1.302505,602.0,0.0,,,2.0,7.0,0.0,1.0,
348,43,stim_mmpeanut.jpg,stim_crunch.jpg,1.0,2.922241,602.0,0.0,,,10.0,4.0,0.0,1.0,
349,44,stim_kitkat.jpg,stim_skittles.jpg,1.0,0.734785,602.0,0.0,,,7.0,14.0,0.0,1.0,
350,45,stim_payday.jpg,stim_reeses.jpg,1.0,0.718179,602.0,0.0,,,12.0,13.0,0.0,1.0,
351,46,stim_milkyway.jpg,stim_mmchocolate.jpg,1.0,1.870336,602.0,0.0,,,8.0,9.0,0.0,1.0,
352,47,stim_skittles.jpg,stim_reeses.jpg,1.0,3.773946,602.0,0.0,,,14.0,13.0,0.0,1.0,
353,48,stim_fruitsnacks.jpg,stim_milkyway.jpg,1.0,1.152188,602.0,0.0,,,5.0,8.0,0.0,1.0,
354,49,stim_whoppers.jpg,stim_almondjoy.jpg,2.0,0.935088,602.0,0.0,,,17.0,1.0,0.0,1.0,
355,50,stim_whoppers.jpg,stim_reeses.jpg,2.0,1.15221,602.0,0.0,,,17.0,13.0,0.0,1.0,
356,51,stim_almondjoy.jpg,stim_reeses.jpg,1.0,0.818264,602.0,0.0,,,1.0,13.0,0.0,1.0,
357,52,stim_mrgoodbar.jpg,stim_snickers.jpg,1.0,1.168915,602.0,0.0,,,11.0,15.0,0.0,1.0,
358,53,stim_reeses.jpg,stim_sourpatchkids.jpg,1.0,2.555035,602.0,0.0,,,13.0,16.0,0.0,1.0,
359,54,stim_snickers.jpg,stim_kitkat.jpg,2.0,0.768151,602.0,0.0,,,15.0,7.0,0.0,1.0,
360,55,stim_whoppers.jpg,stim_snickers.jpg,2.0,1.202305,602.0,0.0,,,17.0,15.0,0.0,1.0,
361,56,stim_kitkat.jpg,stim_fruitsnacks.jpg,1.0,1.636506,602.0,0.0,,,7.0,5.0,0.0,1.0,
362,57,stim_babyruth.jpg,stim_mrgoodbar.jpg,1.0,1.052008,602.0,0.0,,,2.0,11.0,0.0,1.0,
363,58,stim_snickers.jpg,stim_babyruth.jpg,2.0,0.684706,602.0,0.0,,,15.0,2.0,0.0,1.0,
364,59,stim_babyruth.jpg,stim_mmchocolate.jpg,1.0,0.701336,602.0,0.0,,,2.0,9.0,0.0,1.0,
365,60,stim_whoppers.jpg,stim_hundredgrand.jpg,2.0,0.551081,602.0,0.0,,,17.0,6.0,0.0,1.0,
366,61,stim_fruitsnacks.jpg,stim_sourpatchkids.jpg,1.0,0.801625,602.0,0.0,,,5.0,16.0,0.0,1.0,
367,62,stim_fruitsnacks.jpg,stim_skittles.jpg,1.0,1.31921,602.0,0.0,,,5.0,14.0,0.0,1.0,
368,63,stim_payday.jpg,stim_kitkat.jpg,1.0,1.23571,602.0,0.0,,,12.0,7.0,0.0,1.0,
369,64,stim_payday.jpg,stim_hundredgrand.jpg,2.0,0.734849,602.0,0.0,,,12.0,6.0,0.0,1.0,
370,65,stim_mmchocolate.jpg,stim_sourpatchkids.jpg,2.0,2.438058,602.0,0.0,,,9.0,16.0,0.0,1.0,
371,66,stim_babyruth.jpg,stim_payday.jpg,1.0,1.937136,602.0,0.0,,,2.0,12.0,0.0,1.0,
372,67,stim_reeses.jpg,stim_mmchocolate.jpg,1.0,1.252411,602.0,0.0,,,13.0,9.0,0.0,1.0,
373,68,stim_whoppers.jpg,stim_skittles.jpg,2.0,0.601147,602.0,0.0,,,17.0,14.0,0.0,1.0,
374,69,stim_kitkat.jpg,stim_milkyway.jpg,1.0,0.784852,602.0,0.0,,,7.0,8.0,0.0,1.0,
375,70,stim_mmpeanut.jpg,stim_sourpatchkids.jpg,1.0,0.701428,602.0,0.0,,,10.0,16.0,0.0,1.0,
376,71,stim_almondjoy.jpg,stim_butterfinger.jpg,2.0,1.018645,602.0,0.0,,,1.0,3.0,0.0,1.0,
377,72,stim_mmpeanut.jpg,stim_hundredgrand.jpg,2.0,0.935123,602.0,0.0,,,10.0,6.0,0.0,1.0,
378,73,stim_crunch.jpg,stim_whoppers.jpg,1.0,0.784992,602.0,0.0,,,4.0,17.0,0.0,1.0,
379,74,stim_mmpeanut.jpg,stim_mmchocolate.jpg,1.0,0.718078,602.0,0.0,,,10.0,9.0,0.0,1.0,
380,75,stim_almondjoy.jpg,stim_payday.jpg,2.0,0.651226,602.0,0.0,,,1.0,12.0,0.0,1.0,
381,76,stim_butterfinger.jpg,stim_mmchocolate.jpg,1.0,1.285811,602.0,0.0,,,3.0,9.0,0.0,1.0,
382,77,stim_butterfinger.jpg,stim_mmpeanut.jpg,1.0,2.053962,602.0,0.0,,,3.0,10.0,0.0,1.0,
383,78,stim_reeses.jpg,stim_mrgoodbar.jpg,2.0,0.617852,602.0,0.0,,,13.0,11.0,0.0,1.0,
384,79,stim_payday.jpg,stim_skittles.jpg,1.0,0.667947,602.0,0.0,,,12.0,14.0,0.0,1.0,
385,80,stim_sourpatchkids.jpg,stim_milkyway.jpg,2.0,1.770078,602.0,0.0,,,16.0,8.0,0.0,1.0,
386,81,stim_fruitsnacks.jpg,stim_snickers.jpg,2.0,1.185629,602.0,0.0,,,5.0,15.0,0.0,1.0,
387,82,stim_skittles.jpg,stim_sourpatchkids.jpg,2.0,9.034027,602.0,0.0,,,14.0,16.0,0.0,1.0,
388,83,stim_skittles.jpg,stim_mrgoodbar.jpg,2.0,0.951822,602.0,0.0,,,14.0,11.0,0.0,1.0,
389,84,stim_hundredgrand.jpg,stim_milkyway.jpg,1.0,0.801566,602.0,0.0,,,6.0,8.0,0.0,1.0,
390,85,stim_payday.jpg,stim_milkyway.jpg,1.0,0.63454,602.0,0.0,,,12.0,8.0,0.0,1.0,
391,86,stim_fruitsnacks.jpg,stim_payday.jpg,2.0,2.072665,602.0,0.0,,,5.0,12.0,0.0,1.0,
392,87,stim_sourpatchkids.jpg,stim_crunch.jpg,2.0,1.18573,602.0,0.0,,,16.0,4.0,0.0,1.0,
393,88,stim_mrgoodbar.jpg,stim_mmpeanut.jpg,2.0,3.022499,602.0,0.0,,,11.0,10.0,0.0,1.0,
394,89,stim_butterfinger.jpg,stim_hundredgrand.jpg,2.0,0.985242,602.0,0.0,,,3.0,6.0,0.0,1.0,
395,90,stim_mmpeanut.jpg,stim_skittles.jpg,1.0,0.93515,602.0,0.0,,,10.0,14.0,0.0,1.0,
396,91,stim_payday.jpg,stim_crunch.jpg,1.0,1.10213,602.0,0.0,,,12.0,4.0,0.0,1.0,
397,92,stim_milkyway.jpg,stim_almondjoy.jpg,2.0,0.834936,602.0,0.0,,,8.0,1.0,0.0,1.0,
398,93,stim_sourpatchkids.jpg,stim_hundredgrand.jpg,2.0,0.617844,602.0,0.0,,,16.0,6.0,0.0,1.0,
399,94,stim_hundredgrand.jpg,stim_kitkat.jpg,1.0,1.285814,602.0,0.0,,,6.0,7.0,0.0,1.0,
400,95,stim_skittles.jpg,stim_mmchocolate.jpg,1.0,1.653245,602.0,0.0,,,14.0,9.0,0.0,1.0,
401,96,stim_babyruth.jpg,stim_fruitsnacks.jpg,1.0,1.202461,602.0,0.0,,,2.0,5.0,0.0,1.0,
402,97,stim_snickers.jpg,stim_skittles.jpg,1.0,0.98524,602.0,0.0,,,15.0,14.0,0.0,1.0,
403,98,stim_mrgoodbar.jpg,stim_whoppers.jpg,1.0,0.734693,602.0,0.0,,,11.0,17.0,0.0,1.0,
404,99,stim_babyruth.jpg,stim_mmpeanut.jpg,1.0,1.419495,602.0,0.0,,,2.0,10.0,0.0,1.0,
405,100,stim_crunch.jpg,stim_butterfinger.jpg,2.0,0.918413,602.0,0.0,,,4.0,3.0,0.0,1.0,
406,101,stim_reeses.jpg,stim_snickers.jpg,2.0,1.219075,602.0,0.0,,,13.0,15.0,0.0,1.0,
407,102,stim_almondjoy.jpg,stim_mmpeanut.jpg,2.0,1.886868,602.0,0.0,,,1.0,10.0,0.0,1.0,
408,103,stim_babyruth.jpg,stim_crunch.jpg,1.0,0.901757,602.0,0.0,,,2.0,4.0,0.0,1.0,
409,104,stim_fruitsnacks.jpg,stim_butterfinger.jpg,2.0,1.603072,602.0,0.0,,,5.0,3.0,0.0,1.0,
410,105,stim_mmpeanut.jpg,stim_payday.jpg,2.0,1.001995,602.0,0.0,,,10.0,12.0,0.0,1.0,
411,106,stim_crunch.jpg,stim_skittles.jpg,1.0,1.920361,602.0,0.0,,,4.0,14.0,0.0,1.0,
412,107,stim_crunch.jpg,stim_mrgoodbar.jpg,1.0,3.773987,602.0,0.0,,,4.0,11.0,0.0,1.0,
413,108,stim_mrgoodbar.jpg,stim_kitkat.jpg,2.0,1.001928,602.0,0.0,,,11.0,7.0,0.0,1.0,
414,109,stim_babyruth.jpg,stim_hundredgrand.jpg,2.0,0.885031,602.0,0.0,,,2.0,6.0,0.0,1.0,
415,110,stim_kitkat.jpg,stim_almondjoy.jpg,1.0,1.4027,602.0,0.0,,,7.0,1.0,0.0,1.0,
416,111,stim_mrgoodbar.jpg,stim_almondjoy.jpg,1.0,1.80349,602.0,0.0,,,11.0,1.0,0.0,1.0,
417,112,stim_butterfinger.jpg,stim_sourpatchkids.jpg,1.0,0.651248,602.0,0.0,,,3.0,16.0,0.0,1.0,
418,113,stim_hundredgrand.jpg,stim_skittles.jpg,1.0,0.60123,602.0,0.0,,,6.0,14.0,0.0,1.0,
419,114,stim_payday.jpg,stim_sourpatchkids.jpg,1.0,0.935126,602.0,0.0,,,12.0,16.0,0.0,1.0,
420,115,stim_reeses.jpg,stim_kitkat.jpg,2.0,0.684561,602.0,0.0,,,13.0,7.0,0.0,1.0,
421,116,stim_babyruth.jpg,stim_skittles.jpg,1.0,2.054048,602.0,0.0,,,2.0,14.0,0.0,1.0,
422,117,stim_mrgoodbar.jpg,stim_fruitsnacks.jpg,1.0,1.202418,602.0,0.0,,,11.0,5.0,0.0,1.0,
423,118,stim_whoppers.jpg,stim_butterfinger.jpg,2.0,0.684649,602.0,0.0,,,17.0,3.0,0.0,1.0,
424,119,stim_butterfinger.jpg,stim_kitkat.jpg,1.0,1.319118,602.0,0.0,,,3.0,7.0,0.0,1.0,
425,120,stim_mmchocolate.jpg,stim_kitkat.jpg,2.0,0.801436,602.0,0.0,,,9.0,7.0,0.0,1.0,
426,121,stim_butterfinger.jpg,stim_payday.jpg,2.0,4.341708,602.0,0.0,,,3.0,12.0,0.0,1.0,
427,122,stim_crunch.jpg,stim_milkyway.jpg,1.0,0.835017,602.0,0.0,,,4.0,8.0,0.0,1.0,
428,123,stim_whoppers.jpg,stim_mmpeanut.jpg,2.0,0.567764,602.0,0.0,,,17.0,10.0,0.0,1.0,
429,124,stim_crunch.jpg,stim_kitkat.jpg,2.0,1.2524,602.0,0.0,,,4.0,7.0,0.0,1.0,
430,125,stim_fruitsnacks.jpg,stim_hundredgrand.jpg,2.0,1.051992,602.0,0.0,,,5.0,6.0,0.0,1.0,
431,126,stim_kitkat.jpg,stim_whoppers.jpg,1.0,1.352594,602.0,0.0,,,7.0,17.0,0.0,1.0,
432,127,stim_butterfinger.jpg,stim_milkyway.jpg,1.0,0.58443,602.0,0.0,,,3.0,8.0,0.0,1.0,
433,128,stim_whoppers.jpg,stim_mmchocolate.jpg,2.0,0.653132,602.0,0.0,,,17.0,9.0,0.0,1.0,
434,129,stim_reeses.jpg,stim_babyruth.jpg,2.0,0.567696,602.0,0.0,,,13.0,2.0,0.0,1.0,
435,130,stim_mrgoodbar.jpg,stim_mmchocolate.jpg,1.0,0.551087,602.0,0.0,,,11.0,9.0,0.0,1.0,
436,131,stim_reeses.jpg,stim_hundredgrand.jpg,2.0,0.834931,602.0,0.0,,,13.0,6.0,0.0,1.0,
437,132,stim_almondjoy.jpg,stim_mmchocolate.jpg,1.0,0.517762,602.0,0.0,,,1.0,9.0,0.0,1.0,
438,133,stim_milkyway.jpg,stim_snickers.jpg,2.0,0.33403,602.0,0.0,,,8.0,15.0,0.0,1.0,
439,134,stim_mmpeanut.jpg,stim_milkyway.jpg,1.0,0.551047,602.0,0.0,,,10.0,8.0,0.0,1.0,
440,135,stim_almondjoy.jpg,stim_snickers.jpg,1.0,1.001918,602.0,0.0,,,1.0,15.0,0.0,1.0,
441,136,stim_fruitsnacks.jpg,stim_crunch.jpg,1.0,2.738609,602.0,0.0,,,5.0,4.0,0.0,1.0,
442,1,,,,2.922176,602.0,1.0,0.0,stim_milkyway.jpg,0.0,0.0,8.0,1.0,10.0
443,2,,,,3.07516,602.0,1.0,1.0,stim_skittles.jpg,0.0,0.0,14.0,1.0,10.0
444,3,,,,0.88625,602.0,1.0,1.0,stim_butterfinger.jpg,0.0,0.0,3.0,1.0,10.0
445,4,,,,0.753522,602.0,1.0,1.0,stim_kitkat.jpg,0.0,0.0,7.0,1.0,10.0
446,5,,,,2.088485,602.0,1.0,1.0,stim_reeses.jpg,0.0,0.0,13.0,1.0,10.0
447,6,,,,0.869353,602.0,1.0,0.0,stim_mmchocolate.jpg,0.0,0.0,9.0,1.0,10.0
448,7,,,,2.122373,602.0,1.0,1.0,stim_sourpatchkids.jpg,0.0,0.0,16.0,1.0,10.0
449,8,,,,0.936754,602.0,1.0,1.0,stim_mrgoodbar.jpg,0.0,0.0,11.0,1.0,10.0
450,9,,,,1.572244,602.0,1.0,1.0,stim_fruitsnacks.jpg,0.0,0.0,5.0,1.0,10.0
451,10,,,,0.703909,602.0,1.0,1.0,stim_hundredgrand.jpg,0.0,0.0,6.0,1.0,10.0
452,11,,,,1.337033,602.0,1.0,0.0,stim_mmpeanut.jpg,0.0,0.0,10.0,1.0,10.0
453,12,,,,0.714353,602.0,1.0,1.0,stim_payday.jpg,0.0,0.0,12.0,1.0,10.0
454,13,,,,0.85369,602.0,1.0,0.0,stim_whoppers.jpg,0.0,0.0,17.0,1.0,10.0
455,14,,,,0.83615,602.0,1.0,1.0,stim_crunch.jpg,0.0,0.0,4.0,1.0,10.0
456,15,,,,2.223022,602.0,1.0,1.0,stim_snickers.jpg,0.0,0.0,15.0,1.0,10.0
457,16,,,,1.204404,602.0,1.0,1.0,stim_almondjoy.jpg,0.0,0.0,1.0,1.0,10.0
458,17,,,,0.653304,602.0,1.0,1.0,stim_babyruth.jpg,0.0,0.0,2.0,1.0,10.0
459,18,,,,1.303575,602.0,1.0,1.0,stim_reeses.jpg,0.0,0.0,13.0,1.0,10.0
460,19,,,,0.685575,602.0,1.0,0.0,stim_whoppers.jpg,0.0,0.0,17.0,1.0,10.0
461,20,,,,0.652367,602.0,1.0,1.0,stim_butterfinger.jpg,0.0,0.0,3.0,1.0,10.0
462,21,,,,3.123812,602.0,1.0,0.0,stim_milkyway.jpg,0.0,0.0,8.0,1.0,10.0
463,22,,,,0.587006,602.0,1.0,1.0,stim_skittles.jpg,0.0,0.0,14.0,1.0,10.0
464,23,,,,0.936301,602.0,1.0,1.0,stim_fruitsnacks.jpg,0.0,0.0,5.0,1.0,10.0
465,24,,,,0.559783,602.0,1.0,1.0,stim_payday.jpg,0.0,0.0,12.0,1.0,10.0
466,25,,,,0.569824,602.0,1.0,1.0,stim_kitkat.jpg,0.0,0.0,7.0,1.0,10.0
467,26,,,,0.653338,602.0,1.0,1.0,stim_sourpatchkids.jpg,0.0,0.0,16.0,1.0,10.0
468,27,,,,0.83607,602.0,1.0,0.0,stim_mmchocolate.jpg,0.0,0.0,9.0,1.0,10.0
469,28,,,,0.653344,602.0,1.0,1.0,stim_crunch.jpg,0.0,0.0,4.0,1.0,10.0
470,29,,,,2.957239,602.0,1.0,1.0,stim_mmpeanut.jpg,0.0,0.0,10.0,1.0,10.0
471,30,,,,0.670013,602.0,1.0,1.0,stim_mrgoodbar.jpg,0.0,0.0,11.0,1.0,10.0
472,31,,,,0.569842,602.0,1.0,1.0,stim_hundredgrand.jpg,0.0,0.0,6.0,1.0,10.0
473,32,,,,0.553729,602.0,1.0,1.0,stim_babyruth.jpg,0.0,0.0,2.0,1.0,10.0
474,33,,,,0.469654,602.0,1.0,1.0,stim_snickers.jpg,0.0,0.0,15.0,1.0,10.0
475,34,,,,0.603743,602.0,1.0,1.0,stim_almondjoy.jpg,0.0,0.0,1.0,1.0,10.0
476,35,,,,0.452446,602.0,1.0,1.0,stim_babyruth.jpg,0.0,0.0,2.0,1.0,10.0
477,36,,,,0.62042,602.0,1.0,1.0,stim_mrgoodbar.jpg,0.0,0.0,11.0,1.0,10.0
478,37,,,,0.436207,602.0,1.0,1.0,stim_almondjoy.jpg,0.0,0.0,1.0,1.0,10.0
479,38,,,,0.853603,602.0,1.0,1.0,stim_mmpeanut.jpg,0.0,0.0,10.0,1.0,10.0
480,39,,,,0.75356,602.0,1.0,0.0,stim_mmchocolate.jpg,0.0,0.0,9.0,1.0,10.0
481,40,,,,0.619939,602.0,1.0,1.0,stim_snickers.jpg,0.0,0.0,15.0,1.0,10.0
482,41,,,,0.652344,602.0,1.0,1.0,stim_kitkat.jpg,0.0,0.0,7.0,1.0,10.0
483,42,,,,0.903406,602.0,1.0,0.0,stim_milkyway.jpg,0.0,0.0,8.0,1.0,10.0
484,43,,,,0.587006,602.0,1.0,1.0,stim_payday.jpg,0.0,0.0,12.0,1.0,10.0
485,44,,,,0.854185,602.0,1.0,0.0,stim_whoppers.jpg,0.0,0.0,17.0,1.0,10.0
486,45,,,,0.619001,602.0,1.0,1.0,stim_skittles.jpg,0.0,0.0,14.0,1.0,10.0
487,46,,,,0.919635,602.0,1.0,1.0,stim_crunch.jpg,0.0,0.0,4.0,1.0,10.0
488,47,,,,0.752559,602.0,1.0,1.0,stim_reeses.jpg,0.0,0.0,13.0,1.0,10.0
489,48,,,,0.769261,602.0,1.0,1.0,stim_fruitsnacks.jpg,0.0,0.0,5.0,1.0,10.0
490,49,,,,0.553103,602.0,1.0,1.0,stim_butterfinger.jpg,0.0,0.0,3.0,1.0,10.0
491,50,,,,0.703607,602.0,1.0,1.0,stim_hundredgrand.jpg,0.0,0.0,6.0,1.0,10.0
492,51,,,,0.703453,602.0,1.0,1.0,stim_sourpatchkids.jpg,0.0,0.0,16.0,1.0,10.0
493,52,,,,0.687202,602.0,1.0,1.0,stim_hundredgrand.jpg,0.0,0.0,6.0,1.0,10.0
494,53,,,,0.520226,602.0,1.0,1.0,stim_fruitsnacks.jpg,0.0,0.0,5.0,1.0,10.0
495,54,,,,0.553088,602.0,1.0,1.0,stim_crunch.jpg,0.0,0.0,4.0,1.0,10.0
496,55,,,,0.853724,602.0,1.0,0.0,stim_mmchocolate.jpg,0.0,0.0,9.0,1.0,10.0
497,56,,,,0.836583,602.0,1.0,1.0,stim_mmpeanut.jpg,0.0,0.0,10.0,1.0,10.0
498,57,,,,7.248934,602.0,1.0,1.0,stim_sourpatchkids.jpg,0.0,0.0,16.0,1.0,10.0
499,58,,,,0.553683,602.0,1.0,1.0,stim_babyruth.jpg,0.0,0.0,2.0,1.0,10.0
500,59,,,,0.736815,602.0,1.0,0.0,stim_milkyway.jpg,0.0,0.0,8.0,1.0,10.0
501,60,,,,1.037505,602.0,1.0,1.0,stim_snickers.jpg,0.0,0.0,15.0,1.0,10.0
502,61,,,,0.586119,602.0,1.0,1.0,stim_kitkat.jpg,0.0,0.0,7.0,1.0,10.0
503,62,,,,0.553596,602.0,1.0,1.0,stim_payday.jpg,0.0,0.0,12.0,1.0,10.0
504,63,,,,0.803614,602.0,1.0,1.0,stim_mrgoodbar.jpg,0.0,0.0,11.0,1.0,10.0
505,64,,,,0.853346,602.0,1.0,1.0,stim_butterfinger.jpg,0.0,0.0,3.0,1.0,10.0
506,65,,,,0.720164,602.0,1.0,1.0,stim_skittles.jpg,0.0,0.0,14.0,1.0,10.0
507,66,,,,1.103694,602.0,1.0,1.0,stim_reeses.jpg,0.0,0.0,13.0,1.0,10.0
508,67,,,,0.651385,602.0,1.0,0.0,stim_whoppers.jpg,0.0,0.0,17.0,1.0,10.0
509,68,,,,0.687292,602.0,1.0,1.0,stim_almondjoy.jpg,0.0,0.0,1.0,1.0,10.0
510,69,,,,0.552653,602.0,1.0,1.0,stim_hundredgrand.jpg,0.0,0.0,6.0,1.0,10.0
511,70,,,,0.553605,602.0,1.0,1.0,stim_babyruth.jpg,0.0,0.0,2.0,1.0,10.0
512,71,,,,0.552169,602.0,1.0,1.0,stim_fruitsnacks.jpg,0.0,0.0,5.0,1.0,10.0
513,72,,,,0.570331,602.0,1.0,1.0,stim_payday.jpg,0.0,0.0,12.0,1.0,10.0
514,73,,,,0.636611,602.0,1.0,1.0,stim_mrgoodbar.jpg,0.0,0.0,11.0,1.0,10.0
515,74,,,,0.854355,602.0,1.0,1.0,stim_skittles.jpg,0.0,0.0,14.0,1.0,10.0
516,75,,,,0.609969,602.0,1.0,0.0,stim_whoppers.jpg,0.0,0.0,17.0,1.0,10.0
517,76,,,,1.220606,602.0,1.0,1.0,stim_crunch.jpg,0.0,0.0,4.0,1.0,10.0
518,77,,,,0.719593,602.0,1.0,1.0,stim_almondjoy.jpg,0.0,0.0,1.0,1.0,10.0
519,78,,,,0.553609,602.0,1.0,1.0,stim_reeses.jpg,0.0,0.0,13.0,1.0,10.0
520,79,,,,0.953949,602.0,1.0,0.0,stim_mmchocolate.jpg,0.0,0.0,9.0,1.0,10.0
521,80,,,,2.088952,602.0,1.0,0.0,stim_milkyway.jpg,0.0,0.0,8.0,1.0,10.0
522,81,,,,0.669053,602.0,1.0,1.0,stim_butterfinger.jpg,0.0,0.0,3.0,1.0,10.0
523,82,,,,0.585555,602.0,1.0,1.0,stim_kitkat.jpg,0.0,0.0,7.0,1.0,10.0
524,83,,,,0.636069,602.0,1.0,1.0,stim_snickers.jpg,0.0,0.0,15.0,1.0,10.0
525,84,,,,1.321228,602.0,1.0,1.0,stim_mmpeanut.jpg,0.0,0.0,10.0,1.0,10.0
526,85,,,,2.57329,602.0,1.0,1.0,stim_sourpatchkids.jpg,0.0,0.0,16.0,1.0,10.0
527,86,,,,1.012023,602.0,1.0,1.0,stim_kitkat.jpg,0.0,0.0,7.0,1.0,10.0
528,87,,,,0.585467,602.0,1.0,1.0,stim_crunch.jpg,0.0,0.0,4.0,1.0,10.0
529,88,,,,0.653816,602.0,1.0,1.0,stim_fruitsnacks.jpg,0.0,0.0,5.0,1.0,10.0
530,89,,,,0.585555,602.0,1.0,1.0,stim_almondjoy.jpg,0.0,0.0,1.0,1.0,10.0
531,90,,,,0.9196,602.0,1.0,0.0,stim_mmchocolate.jpg,0.0,0.0,9.0,1.0,10.0
532,91,,,,0.568892,602.0,1.0,1.0,stim_snickers.jpg,0.0,0.0,15.0,1.0,10.0
533,92,,,,0.837079,602.0,1.0,1.0,stim_mmpeanut.jpg,0.0,0.0,10.0,1.0,10.0
534,93,,,,0.652443,602.0,1.0,1.0,stim_butterfinger.jpg,0.0,0.0,3.0,1.0,10.0
535,94,,,,1.270714,602.0,1.0,0.0,stim_sourpatchkids.jpg,0.0,0.0,16.0,1.0,10.0
536,95,,,,0.619952,602.0,1.0,1.0,stim_reeses.jpg,0.0,0.0,13.0,1.0,10.0
537,96,,,,0.569364,602.0,1.0,1.0,stim_skittles.jpg,0.0,0.0,14.0,1.0,10.0
538,97,,,,0.619028,602.0,1.0,1.0,stim_mrgoodbar.jpg,0.0,0.0,11.0,1.0,10.0
539,98,,,,0.853231,602.0,1.0,0.0,stim_milkyway.jpg,0.0,0.0,8.0,1.0,10.0
540,99,,,,0.56941,602.0,1.0,1.0,stim_payday.jpg,0.0,0.0,12.0,1.0,10.0
541,100,,,,0.602375,602.0,1.0,1.0,stim_hundredgrand.jpg,0.0,0.0,6.0,1.0,10.0
542,101,,,,0.602255,602.0,1.0,1.0,stim_babyruth.jpg,0.0,0.0,2.0,1.0,10.0
543,102,,,,0.60321,602.0,1.0,0.0,stim_whoppers.jpg,0.0,0.0,17.0,1.0,10.0
544,103,,,,0.653328,602.0,1.0,1.0,stim_payday.jpg,0.0,0.0,12.0,1.0,10.0
545,104,,,,1.070317,602.0,1.0,1.0,stim_skittles.jpg,0.0,0.0,14.0,1.0,10.0
546,105,,,,0.785978,602.0,1.0,1.0,stim_mmpeanut.jpg,0.0,0.0,10.0,1.0,10.0
547,106,,,,0.937746,602.0,1.0,1.0,stim_reeses.jpg,0.0,0.0,13.0,1.0,10.0
548,107,,,,0.603277,602.0,1.0,1.0,stim_crunch.jpg,0.0,0.0,4.0,1.0,10.0
549,108,,,,0.552662,602.0,1.0,1.0,stim_almondjoy.jpg,0.0,0.0,1.0,1.0,10.0
550,109,,,,0.552617,602.0,1.0,1.0,stim_kitkat.jpg,0.0,0.0,7.0,1.0,10.0
551,110,,,,0.620417,602.0,1.0,0.0,stim_whoppers.jpg,0.0,0.0,17.0,1.0,10.0
552,111,,,,0.636619,602.0,1.0,1.0,stim_mrgoodbar.jpg,0.0,0.0,11.0,1.0,10.0
553,112,,,,1.755119,602.0,1.0,0.0,stim_sourpatchkids.jpg,0.0,0.0,16.0,1.0,10.0
554,113,,,,0.836615,602.0,1.0,1.0,stim_snickers.jpg,0.0,0.0,15.0,1.0,10.0
555,114,,,,0.770788,602.0,1.0,1.0,stim_fruitsnacks.jpg,0.0,0.0,5.0,1.0,10.0
556,115,,,,0.569842,602.0,1.0,1.0,stim_babyruth.jpg,0.0,0.0,2.0,1.0,10.0
557,116,,,,0.661966,602.0,1.0,1.0,stim_butterfinger.jpg,0.0,0.0,3.0,1.0,10.0
558,117,,,,1.03692,602.0,1.0,0.0,stim_mmchocolate.jpg,0.0,0.0,9.0,1.0,10.0
559,118,,,,0.837018,602.0,1.0,0.0,stim_milkyway.jpg,0.0,0.0,8.0,1.0,10.0
560,119,,,,0.786924,602.0,1.0,1.0,stim_hundredgrand.jpg,0.0,0.0,6.0,1.0,10.0
561,120,,,,0.687222,602.0,1.0,1.0,stim_almondjoy.jpg,0.0,0.0,1.0,1.0,10.0
562,121,,,,1.170495,602.0,1.0,1.0,stim_hundredgrand.jpg,0.0,0.0,6.0,1.0,10.0
563,122,,,,0.569846,602.0,1.0,1.0,stim_butterfinger.jpg,0.0,0.0,3.0,1.0,10.0
564,123,,,,0.920974,602.0,1.0,0.0,stim_sourpatchkids.jpg,0.0,0.0,16.0,1.0,10.0
565,124,,,,0.61897,602.0,1.0,1.0,stim_snickers.jpg,0.0,0.0,15.0,1.0,10.0
566,125,,,,1.004509,602.0,1.0,0.0,stim_milkyway.jpg,0.0,0.0,8.0,1.0,10.0
567,126,,,,0.752546,602.0,1.0,0.0,stim_mmchocolate.jpg,0.0,0.0,9.0,1.0,10.0
568,127,,,,0.720585,602.0,1.0,1.0,stim_fruitsnacks.jpg,0.0,0.0,5.0,1.0,10.0
569,128,,,,0.636214,602.0,1.0,1.0,stim_crunch.jpg,0.0,0.0,4.0,1.0,10.0
570,129,,,,1.003016,602.0,1.0,1.0,stim_babyruth.jpg,0.0,0.0,2.0,1.0,10.0
571,130,,,,0.81984,602.0,1.0,1.0,stim_skittles.jpg,0.0,0.0,14.0,1.0,10.0
572,131,,,,0.653373,602.0,1.0,0.0,stim_whoppers.jpg,0.0,0.0,17.0,1.0,10.0
573,132,,,,0.58706,602.0,1.0,1.0,stim_mrgoodbar.jpg,0.0,0.0,11.0,1.0,10.0
574,133,,,,0.635668,602.0,1.0,1.0,stim_kitkat.jpg,0.0,0.0,7.0,1.0,10.0
575,134,,,,0.618985,602.0,1.0,1.0,stim_payday.jpg,0.0,0.0,12.0,1.0,10.0
576,135,,,,0.703967,602.0,1.0,1.0,stim_reeses.jpg,0.0,0.0,13.0,1.0,10.0
577,136,,,,0.685876,602.0,1.0,1.0,stim_mmpeanut.jpg,0.0,0.0,10.0,1.0,10.0
578,137,,,,0.553613,602.0,1.0,0.0,stim_whoppers.jpg,0.0,0.0,17.0,1.0,10.0
579,138,,,,0.535957,602.0,1.0,1.0,stim_crunch.jpg,0.0,0.0,4.0,1.0,10.0
580,139,,,,0.602733,602.0,1.0,1.0,stim_butterfinger.jpg,0.0,0.0,3.0,1.0,10.0
581,140,,,,0.55362,602.0,1.0,1.0,stim_babyruth.jpg,0.0,0.0,2.0,1.0,10.0
582,141,,,,0.552699,602.0,1.0,1.0,stim_payday.jpg,0.0,0.0,12.0,1.0,10.0
583,142,,,,0.736858,602.0,1.0,0.0,stim_milkyway.jpg,0.0,0.0,8.0,1.0,10.0
584,143,,,,1.220136,602.0,1.0,1.0,stim_skittles.jpg,0.0,0.0,14.0,1.0,10.0
585,144,,,,0.720134,602.0,1.0,0.0,stim_mmchocolate.jpg,0.0,0.0,9.0,1.0,10.0
586,145,,,,0.620322,602.0,1.0,1.0,stim_almondjoy.jpg,0.0,0.0,1.0,1.0,10.0
587,146,,,,0.569348,602.0,1.0,1.0,stim_snickers.jpg,0.0,0.0,15.0,1.0,10.0
588,147,,,,1.120888,602.0,1.0,0.0,stim_sourpatchkids.jpg,0.0,0.0,16.0,1.0,10.0
589,148,,,,0.553629,602.0,1.0,1.0,stim_kitkat.jpg,0.0,0.0,7.0,1.0,10.0
590,149,,,,5.027464,602.0,1.0,1.0,stim_reeses.jpg,0.0,0.0,13.0,1.0,10.0
591,150,,,,0.636183,602.0,1.0,1.0,stim_hundredgrand.jpg,0.0,0.0,6.0,1.0,10.0
592,151,,,,0.63709,602.0,1.0,1.0,stim_fruitsnacks.jpg,0.0,0.0,5.0,1.0,10.0
593,152,,,,0.686716,602.0,1.0,1.0,stim_mmpeanut.jpg,0.0,0.0,10.0,1.0,10.0
594,153,,,,0.735898,602.0,1.0,1.0,stim_mrgoodbar.jpg,0.0,0.0,11.0,1.0,10.0
595,154,,,,0.585569,602.0,1.0,1.0,stim_almondjoy.jpg,0.0,0.0,1.0,1.0,10.0
596,155,,,,0.752552,602.0,1.0,0.0,stim_whoppers.jpg,0.0,0.0,17.0,1.0,10.0
597,156,,,,0.636191,602.0,1.0,1.0,stim_mmpeanut.jpg,0.0,0.0,10.0,1.0,10.0
598,157,,,,0.618997,602.0,1.0,1.0,stim_fruitsnacks.jpg,0.0,0.0,5.0,1.0,10.0
599,158,,,,0.920986,602.0,1.0,0.0,stim_mmchocolate.jpg,0.0,0.0,9.0,1.0,10.0
600,159,,,,0.786534,602.0,1.0,1.0,stim_reeses.jpg,0.0,0.0,13.0,1.0,10.0
601,160,,,,0.553593,602.0,1.0,1.0,stim_hundredgrand.jpg,0.0,0.0,6.0,1.0,10.0
602,161,,,,0.936301,602.0,1.0,1.0,stim_babyruth.jpg,0.0,0.0,2.0,1.0,10.0
603,162,,,,0.620404,602.0,1.0,1.0,stim_mrgoodbar.jpg,0.0,0.0,11.0,1.0,10.0
604,163,,,,0.520225,602.0,1.0,1.0,stim_payday.jpg,0.0,0.0,12.0,1.0,10.0
605,164,,,,0.570259,602.0,1.0,1.0,stim_butterfinger.jpg,0.0,0.0,3.0,1.0,10.0
606,165,,,,0.8037,602.0,1.0,0.0,stim_sourpatchkids.jpg,0.0,0.0,16.0,1.0,10.0
607,166,,,,0.93628,602.0,1.0,1.0,stim_kitkat.jpg,0.0,0.0,7.0,1.0,10.0
608,167,,,,0.819332,602.0,1.0,1.0,stim_snickers.jpg,0.0,0.0,15.0,1.0,10.0
609,168,,,,0.920564,602.0,1.0,1.0,stim_crunch.jpg,0.0,0.0,4.0,1.0,10.0
610,169,,,,1.154309,602.0,1.0,0.0,stim_milkyway.jpg,0.0,0.0,8.0,1.0,10.0
611,170,,,,0.871037,602.0,1.0,1.0,stim_skittles.jpg,0.0,0.0,14.0,1.0,10.0
612,1,stim_butterfinger.jpg,stim_sourpatchkids.jpg,1.0,1.654744,603.0,0.0,,,3.0,16.0,0.0,1.0,
613,2,stim_fruitsnacks.jpg,stim_snickers.jpg,1.0,0.784869,603.0,0.0,,,5.0,15.0,0.0,1.0,
614,3,stim_butterfinger.jpg,stim_mmchocolate.jpg,1.0,1.335794,603.0,0.0,,,3.0,9.0,0.0,1.0,
615,4,stim_mmpeanut.jpg,stim_payday.jpg,1.0,1.586281,603.0,0.0,,,10.0,12.0,0.0,1.0,
616,5,stim_sourpatchkids.jpg,stim_mrgoodbar.jpg,1.0,1.4527,603.0,0.0,,,16.0,11.0,0.0,1.0,
617,6,stim_butterfinger.jpg,stim_mmpeanut.jpg,1.0,0.818165,603.0,0.0,,,3.0,10.0,0.0,1.0,
618,7,stim_payday.jpg,stim_whoppers.jpg,2.0,0.718032,603.0,0.0,,,12.0,17.0,0.0,1.0,
619,8,stim_crunch.jpg,stim_reeses.jpg,1.0,0.784803,603.0,0.0,,,4.0,13.0,0.0,1.0,
620,9,stim_payday.jpg,stim_reeses.jpg,2.0,4.124424,603.0,0.0,,,12.0,13.0,0.0,1.0,
621,10,stim_reeses.jpg,stim_mmpeanut.jpg,1.0,0.985208,603.0,0.0,,,13.0,10.0,0.0,1.0,
622,11,stim_crunch.jpg,stim_babyruth.jpg,1.0,0.70127,603.0,0.0,,,4.0,2.0,0.0,1.0,
623,12,stim_reeses.jpg,stim_kitkat.jpg,2.0,1.08534,603.0,0.0,,,13.0,7.0,0.0,1.0,
624,13,stim_almondjoy.jpg,stim_crunch.jpg,2.0,0.667881,603.0,0.0,,,1.0,4.0,0.0,1.0,
625,14,stim_babyruth.jpg,stim_milkyway.jpg,2.0,1.569588,603.0,0.0,,,2.0,8.0,0.0,1.0,
626,15,stim_skittles.jpg,stim_fruitsnacks.jpg,2.0,0.768078,603.0,0.0,,,14.0,5.0,0.0,1.0,
627,16,stim_snickers.jpg,stim_butterfinger.jpg,2.0,0.935063,603.0,0.0,,,15.0,3.0,0.0,1.0,
628,17,stim_mmpeanut.jpg,stim_fruitsnacks.jpg,2.0,0.717979,603.0,0.0,,,10.0,5.0,0.0,1.0,
629,18,stim_mrgoodbar.jpg,stim_payday.jpg,1.0,1.135437,603.0,0.0,,,11.0,12.0,0.0,1.0,
630,19,stim_crunch.jpg,stim_milkyway.jpg,1.0,0.551015,603.0,0.0,,,4.0,8.0,0.0,1.0,
631,20,stim_kitkat.jpg,stim_mmpeanut.jpg,1.0,0.634522,603.0,0.0,,,7.0,10.0,0.0,1.0,
632,21,stim_crunch.jpg,stim_sourpatchkids.jpg,1.0,0.534312,603.0,0.0,,,4.0,16.0,0.0,1.0,
633,22,stim_mrgoodbar.jpg,stim_skittles.jpg,1.0,1.152167,603.0,0.0,,,11.0,14.0,0.0,1.0,
634,23,stim_skittles.jpg,stim_reeses.jpg,2.0,0.985149,603.0,0.0,,,14.0,13.0,0.0,1.0,
635,24,stim_almondjoy.jpg,stim_payday.jpg,2.0,3.239425,603.0,0.0,,,1.0,12.0,0.0,1.0,
636,25,stim_whoppers.jpg,stim_kitkat.jpg,1.0,1.419312,603.0,0.0,,,17.0,7.0,0.0,1.0,
637,26,stim_sourpatchkids.jpg,stim_hundredgrand.jpg,2.0,0.784754,603.0,0.0,,,16.0,6.0,0.0,1.0,
638,27,stim_crunch.jpg,stim_hundredgrand.jpg,1.0,0.651187,603.0,0.0,,,4.0,6.0,0.0,1.0,
639,28,stim_babyruth.jpg,stim_skittles.jpg,2.0,0.834878,603.0,0.0,,,2.0,14.0,0.0,1.0,
640,29,stim_mrgoodbar.jpg,stim_milkyway.jpg,1.0,1.536194,603.0,0.0,,,11.0,8.0,0.0,1.0,
641,30,stim_reeses.jpg,stim_hundredgrand.jpg,2.0,0.651189,603.0,0.0,,,13.0,6.0,0.0,1.0,
642,31,stim_hundredgrand.jpg,stim_babyruth.jpg,1.0,0.701307,603.0,0.0,,,6.0,2.0,0.0,1.0,
643,32,stim_babyruth.jpg,stim_payday.jpg,1.0,2.421194,603.0,0.0,,,2.0,12.0,0.0,1.0,
644,33,stim_kitkat.jpg,stim_hundredgrand.jpg,1.0,2.170719,603.0,0.0,,,7.0,6.0,0.0,1.0,
645,34,stim_mmpeanut.jpg,stim_hundredgrand.jpg,2.0,0.634481,603.0,0.0,,,10.0,6.0,0.0,1.0,
646,35,stim_babyruth.jpg,stim_mrgoodbar.jpg,2.0,0.93506,603.0,0.0,,,2.0,11.0,0.0,1.0,
647,36,stim_skittles.jpg,stim_snickers.jpg,1.0,3.489886,603.0,0.0,,,14.0,15.0,0.0,1.0,
648,37,stim_snickers.jpg,stim_almondjoy.jpg,1.0,1.152132,603.0,0.0,,,15.0,1.0,0.0,1.0,
649,38,stim_snickers.jpg,stim_mmchocolate.jpg,2.0,1.452701,603.0,0.0,,,15.0,9.0,0.0,1.0,
650,39,stim_milkyway.jpg,stim_skittles.jpg,2.0,2.020462,603.0,0.0,,,8.0,14.0,0.0,1.0,
651,40,stim_hundredgrand.jpg,stim_skittles.jpg,1.0,0.584409,603.0,0.0,,,6.0,14.0,0.0,1.0,
652,41,stim_hundredgrand.jpg,stim_fruitsnacks.jpg,1.0,0.534301,603.0,0.0,,,6.0,5.0,0.0,1.0,
653,42,stim_payday.jpg,stim_snickers.jpg,2.0,0.918387,603.0,0.0,,,12.0,15.0,0.0,1.0,
654,43,stim_butterfinger.jpg,stim_milkyway.jpg,1.0,0.768088,603.0,0.0,,,3.0,8.0,0.0,1.0,
655,44,stim_almondjoy.jpg,stim_hundredgrand.jpg,2.0,0.784785,603.0,0.0,,,1.0,6.0,0.0,1.0,
656,45,stim_kitkat.jpg,stim_babyruth.jpg,1.0,0.868262,603.0,0.0,,,7.0,2.0,0.0,1.0,
657,46,stim_crunch.jpg,stim_mmchocolate.jpg,1.0,0.634491,603.0,0.0,,,4.0,9.0,0.0,1.0,
658,47,stim_kitkat.jpg,stim_sourpatchkids.jpg,1.0,1.352516,603.0,0.0,,,7.0,16.0,0.0,1.0,
659,48,stim_babyruth.jpg,stim_almondjoy.jpg,1.0,1.269018,603.0,0.0,,,2.0,1.0,0.0,1.0,
660,49,stim_reeses.jpg,stim_mrgoodbar.jpg,2.0,1.352533,603.0,0.0,,,13.0,11.0,0.0,1.0,
661,50,stim_hundredgrand.jpg,stim_mmchocolate.jpg,1.0,0.6178,603.0,0.0,,,6.0,9.0,0.0,1.0,
662,51,stim_almondjoy.jpg,stim_sourpatchkids.jpg,2.0,1.836778,603.0,0.0,,,1.0,16.0,0.0,1.0,
663,52,stim_whoppers.jpg,stim_mmchocolate.jpg,1.0,0.651183,603.0,0.0,,,17.0,9.0,0.0,1.0,
664,53,stim_babyruth.jpg,stim_mmpeanut.jpg,1.0,1.319133,603.0,0.0,,,2.0,10.0,0.0,1.0,
665,54,stim_hundredgrand.jpg,stim_snickers.jpg,1.0,0.667942,603.0,0.0,,,6.0,15.0,0.0,1.0,
666,55,stim_fruitsnacks.jpg,stim_butterfinger.jpg,1.0,1.285733,603.0,0.0,,,5.0,3.0,0.0,1.0,
667,56,stim_mmchocolate.jpg,stim_fruitsnacks.jpg,2.0,1.018645,603.0,0.0,,,9.0,5.0,0.0,1.0,
668,57,stim_sourpatchkids.jpg,stim_payday.jpg,1.0,1.703179,603.0,0.0,,,16.0,12.0,0.0,1.0,
669,58,stim_payday.jpg,stim_hundredgrand.jpg,2.0,0.818189,603.0,0.0,,,12.0,6.0,0.0,1.0,
670,59,stim_whoppers.jpg,stim_butterfinger.jpg,1.0,0.951772,603.0,0.0,,,17.0,3.0,0.0,1.0,
671,60,stim_payday.jpg,stim_crunch.jpg,2.0,0.701287,603.0,0.0,,,12.0,4.0,0.0,1.0,
672,61,stim_milkyway.jpg,stim_reeses.jpg,2.0,1.135459,603.0,0.0,,,8.0,13.0,0.0,1.0,
673,62,stim_snickers.jpg,stim_babyruth.jpg,1.0,1.001871,603.0,0.0,,,15.0,2.0,0.0,1.0,
674,63,stim_fruitsnacks.jpg,stim_payday.jpg,1.0,0.701293,603.0,0.0,,,5.0,12.0,0.0,1.0,
675,64,stim_sourpatchkids.jpg,stim_reeses.jpg,2.0,6.311881,603.0,0.0,,,16.0,13.0,0.0,1.0,
676,65,stim_babyruth.jpg,stim_sourpatchkids.jpg,2.0,0.701278,603.0,0.0,,,2.0,16.0,0.0,1.0,
677,66,stim_mmpeanut.jpg,stim_mmchocolate.jpg,2.0,1.20224,603.0,0.0,,,10.0,9.0,0.0,1.0,
678,67,stim_hundredgrand.jpg,stim_mrgoodbar.jpg,1.0,0.851589,603.0,0.0,,,6.0,11.0,0.0,1.0,
679,68,stim_mmpeanut.jpg,stim_skittles.jpg,2.0,1.252361,603.0,0.0,,,10.0,14.0,0.0,1.0,
680,69,stim_mmpeanut.jpg,stim_snickers.jpg,2.0,2.070549,603.0,0.0,,,10.0,15.0,0.0,1.0,
681,70,stim_kitkat.jpg,stim_payday.jpg,1.0,0.901657,603.0,0.0,,,7.0,12.0,0.0,1.0,
682,71,stim_whoppers.jpg,stim_mrgoodbar.jpg,1.0,1.051951,603.0,0.0,,,17.0,11.0,0.0,1.0,
683,72,stim_fruitsnacks.jpg,stim_sourpatchkids.jpg,1.0,0.818182,603.0,0.0,,,5.0,16.0,0.0,1.0,
684,73,stim_sourpatchkids.jpg,stim_mmpeanut.jpg,1.0,1.319122,603.0,0.0,,,16.0,10.0,0.0,1.0,
685,74,stim_butterfinger.jpg,stim_reeses.jpg,2.0,1.75329,603.0,0.0,,,3.0,13.0,0.0,1.0,
686,75,stim_hundredgrand.jpg,stim_whoppers.jpg,2.0,2.003763,603.0,0.0,,,6.0,17.0,0.0,1.0,
687,76,stim_snickers.jpg,stim_milkyway.jpg,1.0,1.870169,603.0,0.0,,,15.0,8.0,0.0,1.0,
688,77,stim_butterfinger.jpg,stim_babyruth.jpg,1.0,1.536195,603.0,0.0,,,3.0,2.0,0.0,1.0,
689,78,stim_whoppers.jpg,stim_sourpatchkids.jpg,1.0,1.820076,603.0,0.0,,,17.0,16.0,0.0,1.0,
690,79,stim_milkyway.jpg,stim_payday.jpg,1.0,0.768071,603.0,0.0,,,8.0,12.0,0.0,1.0,
691,80,stim_skittles.jpg,stim_almondjoy.jpg,1.0,2.85536,603.0,0.0,,,14.0,1.0,0.0,1.0,
692,81,stim_crunch.jpg,stim_mrgoodbar.jpg,1.0,0.935059,603.0,0.0,,,4.0,11.0,0.0,1.0,
693,82,stim_skittles.jpg,stim_mmchocolate.jpg,2.0,1.436005,603.0,0.0,,,14.0,9.0,0.0,1.0,
694,83,stim_almondjoy.jpg,stim_kitkat.jpg,2.0,0.768076,603.0,0.0,,,1.0,7.0,0.0,1.0,
695,84,stim_mmpeanut.jpg,stim_almondjoy.jpg,1.0,1.252325,603.0,0.0,,,10.0,1.0,0.0,1.0,
696,85,stim_snickers.jpg,stim_kitkat.jpg,2.0,0.818174,603.0,0.0,,,15.0,7.0,0.0,1.0,
697,86,stim_butterfinger.jpg,stim_almondjoy.jpg,1.0,1.168852,603.0,0.0,,,3.0,1.0,0.0,1.0,
698,87,stim_fruitsnacks.jpg,stim_babyruth.jpg,1.0,0.651199,603.0,0.0,,,5.0,2.0,0.0,1.0,
699,88,stim_butterfinger.jpg,stim_kitkat.jpg,2.0,1.202254,603.0,0.0,,,3.0,7.0,0.0,1.0,
700,89,stim_kitkat.jpg,stim_mrgoodbar.jpg,1.0,0.551005,603.0,0.0,,,7.0,11.0,0.0,1.0,
701,90,stim_snickers.jpg,stim_whoppers.jpg,2.0,0.567721,603.0,0.0,,,15.0,17.0,0.0,1.0,
702,91,stim_crunch.jpg,stim_kitkat.jpg,1.0,0.751404,603.0,0.0,,,4.0,7.0,0.0,1.0,
703,92,stim_mrgoodbar.jpg,stim_mmpeanut.jpg,1.0,1.552922,603.0,0.0,,,11.0,10.0,0.0,1.0,
704,93,stim_mrgoodbar.jpg,stim_mmchocolate.jpg,2.0,1.102058,603.0,0.0,,,11.0,9.0,0.0,1.0,
705,94,stim_milkyway.jpg,stim_kitkat.jpg,2.0,0.985169,603.0,0.0,,,8.0,7.0,0.0,1.0,
706,95,stim_whoppers.jpg,stim_babyruth.jpg,1.0,0.551001,603.0,0.0,,,17.0,2.0,0.0,1.0,
707,96,stim_milkyway.jpg,stim_sourpatchkids.jpg,2.0,1.335831,603.0,0.0,,,8.0,16.0,0.0,1.0,
708,97,stim_butterfinger.jpg,stim_mrgoodbar.jpg,1.0,1.75329,603.0,0.0,,,3.0,11.0,0.0,1.0,
709,98,stim_payday.jpg,stim_mmchocolate.jpg,2.0,2.287618,603.0,0.0,,,12.0,9.0,0.0,1.0,
710,99,stim_crunch.jpg,stim_butterfinger.jpg,1.0,1.853502,603.0,0.0,,,4.0,3.0,0.0,1.0,
711,100,stim_whoppers.jpg,stim_mmpeanut.jpg,1.0,5.560451,603.0,0.0,,,17.0,10.0,0.0,1.0,
712,101,stim_skittles.jpg,stim_butterfinger.jpg,2.0,0.901679,603.0,0.0,,,14.0,3.0,0.0,1.0,
713,102,stim_milkyway.jpg,stim_fruitsnacks.jpg,2.0,0.751401,603.0,0.0,,,8.0,5.0,0.0,1.0,
714,103,stim_whoppers.jpg,stim_skittles.jpg,1.0,0.500922,603.0,0.0,,,17.0,14.0,0.0,1.0,
715,104,stim_mrgoodbar.jpg,stim_fruitsnacks.jpg,2.0,1.602987,603.0,0.0,,,11.0,5.0,0.0,1.0,
716,105,stim_reeses.jpg,stim_mmchocolate.jpg,1.0,0.768075,603.0,0.0,,,13.0,9.0,0.0,1.0,
717,106,stim_butterfinger.jpg,stim_payday.jpg,1.0,0.717982,603.0,0.0,,,3.0,12.0,0.0,1.0,
718,107,stim_reeses.jpg,stim_whoppers.jpg,2.0,0.868266,603.0,0.0,,,13.0,17.0,0.0,1.0,
719,108,stim_mrgoodbar.jpg,stim_snickers.jpg,1.0,0.567697,603.0,0.0,,,11.0,15.0,0.0,1.0,
720,109,stim_milkyway.jpg,stim_mmpeanut.jpg,2.0,1.686482,603.0,0.0,,,8.0,10.0,0.0,1.0,
721,110,stim_almondjoy.jpg,stim_fruitsnacks.jpg,2.0,0.517613,603.0,0.0,,,1.0,5.0,0.0,1.0,
722,111,stim_whoppers.jpg,stim_crunch.jpg,2.0,1.352505,603.0,0.0,,,17.0,4.0,0.0,1.0,
723,112,stim_milkyway.jpg,stim_whoppers.jpg,2.0,1.001862,603.0,0.0,,,8.0,17.0,0.0,1.0,
724,113,stim_fruitsnacks.jpg,stim_kitkat.jpg,1.0,0.484228,603.0,0.0,,,5.0,7.0,0.0,1.0,
725,114,stim_butterfinger.jpg,stim_hundredgrand.jpg,2.0,0.667904,603.0,0.0,,,3.0,6.0,0.0,1.0,
726,115,stim_snickers.jpg,stim_crunch.jpg,2.0,0.667914,603.0,0.0,,,15.0,4.0,0.0,1.0,
727,116,stim_skittles.jpg,stim_kitkat.jpg,2.0,0.66789,603.0,0.0,,,14.0,7.0,0.0,1.0,
728,117,stim_skittles.jpg,stim_sourpatchkids.jpg,2.0,0.985174,603.0,0.0,,,14.0,16.0,0.0,1.0,
729,118,stim_milkyway.jpg,stim_mmchocolate.jpg,2.0,0.935075,603.0,0.0,,,8.0,9.0,0.0,1.0,
730,119,stim_almondjoy.jpg,stim_mmchocolate.jpg,2.0,0.985153,603.0,0.0,,,1.0,9.0,0.0,1.0,
731,120,stim_whoppers.jpg,stim_almondjoy.jpg,1.0,0.701274,603.0,0.0,,,17.0,1.0,0.0,1.0,
732,121,stim_snickers.jpg,stim_reeses.jpg,2.0,1.269039,603.0,0.0,,,15.0,13.0,0.0,1.0,
733,122,stim_fruitsnacks.jpg,stim_reeses.jpg,1.0,1.102055,603.0,0.0,,,5.0,13.0,0.0,1.0,
734,123,stim_babyruth.jpg,stim_mmchocolate.jpg,2.0,2.721777,603.0,0.0,,,2.0,9.0,0.0,1.0,
735,124,stim_crunch.jpg,stim_fruitsnacks.jpg,1.0,3.072426,603.0,0.0,,,4.0,5.0,0.0,1.0,
736,125,stim_reeses.jpg,stim_babyruth.jpg,1.0,0.651201,603.0,0.0,,,13.0,2.0,0.0,1.0,
737,126,stim_fruitsnacks.jpg,stim_whoppers.jpg,2.0,23.193739,603.0,0.0,,,5.0,17.0,0.0,1.0,
738,127,stim_skittles.jpg,stim_payday.jpg,1.0,0.784785,603.0,0.0,,,14.0,12.0,0.0,1.0,
739,128,stim_milkyway.jpg,stim_almondjoy.jpg,1.0,0.834889,603.0,0.0,,,8.0,1.0,0.0,1.0,
740,129,stim_mmchocolate.jpg,stim_kitkat.jpg,2.0,0.884972,603.0,0.0,,,9.0,7.0,0.0,1.0,
741,130,stim_sourpatchkids.jpg,stim_snickers.jpg,1.0,0.668022,603.0,0.0,,,16.0,15.0,0.0,1.0,
742,131,stim_mmpeanut.jpg,stim_crunch.jpg,2.0,0.484235,603.0,0.0,,,10.0,4.0,0.0,1.0,
743,132,stim_hundredgrand.jpg,stim_milkyway.jpg,1.0,0.58458,603.0,0.0,,,6.0,8.0,0.0,1.0,
744,133,stim_crunch.jpg,stim_skittles.jpg,1.0,0.46753,603.0,0.0,,,4.0,14.0,0.0,1.0,
745,134,stim_almondjoy.jpg,stim_reeses.jpg,2.0,0.768113,603.0,0.0,,,1.0,13.0,0.0,1.0,
746,135,stim_mmchocolate.jpg,stim_sourpatchkids.jpg,1.0,0.601109,603.0,0.0,,,9.0,16.0,0.0,1.0,
747,136,stim_almondjoy.jpg,stim_mrgoodbar.jpg,2.0,0.935078,603.0,0.0,,,1.0,11.0,0.0,1.0,
748,1,,,,1.736458,603.0,1.0,0.0,stim_payday.jpg,0.0,0.0,12.0,1.0,10.0
749,2,,,,1.087391,603.0,1.0,0.0,stim_babyruth.jpg,0.0,0.0,2.0,1.0,10.0
750,3,,,,0.803077,603.0,1.0,0.0,stim_mrgoodbar.jpg,0.0,0.0,11.0,1.0,10.0
751,4,,,,1.872679,603.0,1.0,0.0,stim_butterfinger.jpg,0.0,0.0,3.0,1.0,10.0
752,5,,,,0.670398,603.0,1.0,0.0,stim_almondjoy.jpg,0.0,0.0,1.0,1.0,10.0
753,6,,,,2.322604,603.0,1.0,1.0,stim_fruitsnacks.jpg,0.0,0.0,5.0,1.0,10.0
754,7,,,,2.773457,603.0,1.0,1.0,stim_hundredgrand.jpg,0.0,0.0,6.0,1.0,10.0
755,8,,,,0.970032,603.0,1.0,0.0,stim_milkyway.jpg,0.0,0.0,8.0,1.0,10.0
756,9,,,,0.837404,603.0,1.0,1.0,stim_kitkat.jpg,0.0,0.0,7.0,1.0,10.0
757,10,,,,0.786817,603.0,1.0,0.0,stim_mmpeanut.jpg,0.0,0.0,10.0,1.0,10.0
758,11,,,,1.470565,603.0,1.0,0.0,stim_mmchocolate.jpg,0.0,0.0,9.0,1.0,10.0
759,12,,,,1.921406,603.0,1.0,0.0,stim_skittles.jpg,0.0,0.0,14.0,1.0,10.0
760,13,,,,0.819774,603.0,1.0,0.0,stim_reeses.jpg,0.0,0.0,13.0,1.0,10.0
761,14,,,,0.970031,603.0,1.0,1.0,stim_crunch.jpg,0.0,0.0,4.0,1.0,10.0
762,15,,,,1.655625,603.0,1.0,1.0,stim_whoppers.jpg,0.0,0.0,17.0,1.0,10.0
763,16,,,,1.387521,603.0,1.0,0.0,stim_snickers.jpg,0.0,0.0,15.0,1.0,10.0
764,17,,,,0.80306,603.0,1.0,0.0,stim_sourpatchkids.jpg,0.0,0.0,16.0,1.0,10.0
765,18,,,,0.586448,603.0,1.0,0.0,stim_skittles.jpg,0.0,0.0,14.0,1.0,10.0
766,19,,,,0.603609,603.0,1.0,0.0,stim_milkyway.jpg,0.0,0.0,8.0,1.0,10.0
767,20,,,,3.125039,603.0,1.0,0.0,stim_mmchocolate.jpg,0.0,0.0,9.0,1.0,10.0
768,21,,,,1.871734,603.0,1.0,1.0,stim_hundredgrand.jpg,0.0,0.0,6.0,1.0,10.0
769,22,,,,0.60316,603.0,1.0,0.0,stim_mrgoodbar.jpg,0.0,0.0,11.0,1.0,10.0
770,23,,,,1.087414,603.0,1.0,0.0,stim_butterfinger.jpg,0.0,0.0,3.0,1.0,10.0
771,24,,,,0.753879,603.0,1.0,0.0,stim_babyruth.jpg,0.0,0.0,2.0,1.0,10.0
772,25,,,,1.05306,603.0,1.0,1.0,stim_whoppers.jpg,0.0,0.0,17.0,1.0,10.0
773,26,,,,0.603136,603.0,1.0,0.0,stim_sourpatchkids.jpg,0.0,0.0,16.0,1.0,10.0
774,27,,,,0.687128,603.0,1.0,0.0,stim_mmpeanut.jpg,0.0,0.0,10.0,1.0,10.0
775,28,,,,0.803529,603.0,1.0,0.0,stim_snickers.jpg,0.0,0.0,15.0,1.0,10.0
776,29,,,,0.819303,603.0,1.0,1.0,stim_fruitsnacks.jpg,0.0,0.0,5.0,1.0,10.0
777,30,,,,0.635622,603.0,1.0,1.0,stim_kitkat.jpg,0.0,0.0,7.0,1.0,10.0
778,31,,,,0.853145,603.0,1.0,0.0,stim_payday.jpg,0.0,0.0,12.0,1.0,10.0
779,32,,,,0.619791,603.0,1.0,0.0,stim_almondjoy.jpg,0.0,0.0,1.0,1.0,10.0
780,33,,,,0.835964,603.0,1.0,0.0,stim_reeses.jpg,0.0,0.0,13.0,1.0,10.0
781,34,,,,0.569315,603.0,1.0,1.0,stim_crunch.jpg,0.0,0.0,4.0,1.0,10.0
782,35,,,,0.653716,603.0,1.0,0.0,stim_snickers.jpg,0.0,0.0,15.0,1.0,10.0
783,36,,,,0.553166,603.0,1.0,0.0,stim_sourpatchkids.jpg,0.0,0.0,16.0,1.0,10.0
784,37,,,,0.820692,603.0,1.0,0.0,stim_butterfinger.jpg,0.0,0.0,3.0,1.0,10.0
785,38,,,,0.569757,603.0,1.0,0.0,stim_almondjoy.jpg,0.0,0.0,1.0,1.0,10.0
786,39,,,,0.953814,603.0,1.0,0.0,stim_babyruth.jpg,0.0,0.0,2.0,1.0,10.0
787,40,,,,0.552112,603.0,1.0,0.0,stim_mmpeanut.jpg,0.0,0.0,10.0,1.0,10.0
788,41,,,,1.220984,603.0,1.0,1.0,stim_whoppers.jpg,0.0,0.0,17.0,1.0,10.0
789,42,,,,0.737208,603.0,1.0,0.0,stim_skittles.jpg,0.0,0.0,14.0,1.0,10.0
790,43,,,,1.438035,603.0,1.0,0.0,stim_mmchocolate.jpg,0.0,0.0,9.0,1.0,10.0
791,44,,,,7.733716,603.0,1.0,1.0,stim_hundredgrand.jpg,0.0,0.0,6.0,1.0,10.0
792,45,,,,0.569261,603.0,1.0,0.0,stim_reeses.jpg,0.0,0.0,13.0,1.0,10.0
793,46,,,,0.55259,603.0,1.0,0.0,stim_milkyway.jpg,0.0,0.0,8.0,1.0,10.0
794,47,,,,0.720046,603.0,1.0,1.0,stim_fruitsnacks.jpg,0.0,0.0,5.0,1.0,10.0
795,48,,,,0.653727,603.0,1.0,1.0,stim_kitkat.jpg,0.0,0.0,7.0,1.0,10.0
796,49,,,,0.652759,603.0,1.0,0.0,stim_mrgoodbar.jpg,0.0,0.0,11.0,1.0,10.0
797,50,,,,0.636082,603.0,1.0,0.0,stim_payday.jpg,0.0,0.0,12.0,1.0,10.0
798,51,,,,0.618927,603.0,1.0,1.0,stim_crunch.jpg,0.0,0.0,4.0,1.0,10.0
799,52,,,,0.586008,603.0,1.0,1.0,stim_hundredgrand.jpg,0.0,0.0,6.0,1.0,10.0
800,53,,,,0.63565,603.0,1.0,1.0,stim_crunch.jpg,0.0,0.0,4.0,1.0,10.0
801,54,,,,1.604071,603.0,1.0,0.0,stim_butterfinger.jpg,0.0,0.0,3.0,1.0,10.0
802,55,,,,0.786848,603.0,1.0,1.0,stim_kitkat.jpg,0.0,0.0,7.0,1.0,10.0
803,56,,,,10.655412,603.0,1.0,0.0,stim_mrgoodbar.jpg,0.0,0.0,11.0,1.0,10.0
804,57,,,,1.65467,603.0,1.0,0.0,stim_reeses.jpg,0.0,0.0,13.0,1.0,10.0
805,58,,,,0.603135,603.0,1.0,1.0,stim_fruitsnacks.jpg,0.0,0.0,5.0,1.0,10.0
806,59,,,,0.636988,603.0,1.0,0.0,stim_milkyway.jpg,0.0,0.0,8.0,1.0,10.0
807,60,,,,1.136997,603.0,1.0,0.0,stim_snickers.jpg,0.0,0.0,15.0,1.0,10.0
808,61,,,,0.603593,603.0,1.0,0.0,stim_mmpeanut.jpg,0.0,0.0,10.0,1.0,10.0
809,62,,,,0.5535,603.0,1.0,0.0,stim_payday.jpg,0.0,0.0,12.0,1.0,10.0
810,63,,,,1.2038,603.0,1.0,0.0,stim_skittles.jpg,0.0,0.0,14.0,1.0,10.0
811,64,,,,0.553032,603.0,1.0,0.0,stim_sourpatchkids.jpg,0.0,0.0,16.0,1.0,10.0
812,65,,,,0.736675,603.0,1.0,0.0,stim_mmchocolate.jpg,0.0,0.0,9.0,1.0,10.0
813,66,,,,0.803508,603.0,1.0,0.0,stim_babyruth.jpg,0.0,0.0,2.0,1.0,10.0
814,67,,,,1.019652,603.0,1.0,1.0,stim_whoppers.jpg,0.0,0.0,17.0,1.0,10.0
815,68,,,,0.452409,603.0,1.0,0.0,stim_almondjoy.jpg,0.0,0.0,1.0,1.0,10.0
816,69,,,,0.553009,603.0,1.0,0.0,stim_sourpatchkids.jpg,0.0,0.0,16.0,1.0,10.0
817,70,,,,0.635621,603.0,1.0,0.0,stim_mrgoodbar.jpg,0.0,0.0,11.0,1.0,10.0
818,71,,,,0.553049,603.0,1.0,0.0,stim_skittles.jpg,0.0,0.0,14.0,1.0,10.0
819,72,,,,0.602711,603.0,1.0,1.0,stim_crunch.jpg,0.0,0.0,4.0,1.0,10.0
820,73,,,,0.619393,603.0,1.0,1.0,stim_kitkat.jpg,0.0,0.0,7.0,1.0,10.0
821,74,,,,0.552635,603.0,1.0,0.0,stim_mmpeanut.jpg,0.0,0.0,10.0,1.0,10.0
822,75,,,,0.586024,603.0,1.0,0.0,stim_payday.jpg,0.0,0.0,12.0,1.0,10.0
823,76,,,,0.637028,603.0,1.0,0.0,stim_snickers.jpg,0.0,0.0,15.0,1.0,10.0
824,77,,,,0.56882,603.0,1.0,1.0,stim_whoppers.jpg,0.0,0.0,17.0,1.0,10.0
825,78,,,,0.735826,603.0,1.0,1.0,stim_fruitsnacks.jpg,0.0,0.0,5.0,1.0,10.0
826,79,,,,0.602706,603.0,1.0,0.0,stim_babyruth.jpg,0.0,0.0,2.0,1.0,10.0
827,80,,,,0.570241,603.0,1.0,0.0,stim_reeses.jpg,0.0,0.0,13.0,1.0,10.0
828,81,,,,0.703349,603.0,1.0,0.0,stim_almondjoy.jpg,0.0,0.0,1.0,1.0,10.0
829,82,,,,0.736721,603.0,1.0,0.0,stim_mmchocolate.jpg,0.0,0.0,9.0,1.0,10.0
830,83,,,,0.569298,603.0,1.0,0.0,stim_butterfinger.jpg,0.0,0.0,3.0,1.0,10.0
831,84,,,,0.585965,603.0,1.0,0.0,stim_milkyway.jpg,0.0,0.0,8.0,1.0,10.0
832,85,,,,0.602192,603.0,1.0,1.0,stim_hundredgrand.jpg,0.0,0.0,6.0,1.0,10.0
833,86,,,,4.894822,603.0,1.0,1.0,stim_fruitsnacks.jpg,0.0,0.0,5.0,1.0,10.0
834,87,,,,0.668509,603.0,1.0,1.0,stim_kitkat.jpg,0.0,0.0,7.0,1.0,10.0
835,88,,,,0.920121,603.0,1.0,0.0,stim_snickers.jpg,0.0,0.0,15.0,1.0,10.0
836,89,,,,0.649646,603.0,1.0,0.0,stim_payday.jpg,0.0,0.0,12.0,1.0,10.0
837,90,,,,0.903965,603.0,1.0,0.0,stim_mrgoodbar.jpg,0.0,0.0,11.0,1.0,10.0
838,91,,,,0.540745,603.0,1.0,0.0,stim_skittles.jpg,0.0,0.0,14.0,1.0,10.0
839,92,,,,0.558856,603.0,1.0,0.0,stim_babyruth.jpg,0.0,0.0,2.0,1.0,10.0
840,93,,,,0.479554,603.0,1.0,0.0,stim_mmpeanut.jpg,0.0,0.0,10.0,1.0,10.0
841,94,,,,0.472016,603.0,1.0,0.0,stim_almondjoy.jpg,0.0,0.0,1.0,1.0,10.0
842,95,,,,0.553352,603.0,1.0,0.0,stim_milkyway.jpg,0.0,0.0,8.0,1.0,10.0
843,96,,,,0.527246,603.0,1.0,0.0,stim_hundredgrand.jpg,0.0,0.0,6.0,1.0,10.0
844,97,,,,0.721956,603.0,1.0,0.0,stim_butterfinger.jpg,0.0,0.0,3.0,1.0,10.0
845,98,,,,0.630775,603.0,1.0,0.0,stim_reeses.jpg,0.0,0.0,13.0,1.0,10.0
846,99,,,,0.447774,603.0,1.0,0.0,stim_mmchocolate.jpg,0.0,0.0,9.0,1.0,10.0
847,100,,,,0.487086,603.0,1.0,1.0,stim_crunch.jpg,0.0,0.0,4.0,1.0,10.0
848,101,,,,0.529452,603.0,1.0,1.0,stim_whoppers.jpg,0.0,0.0,17.0,1.0,10.0
849,102,,,,0.442091,603.0,1.0,0.0,stim_sourpatchkids.jpg,0.0,0.0,16.0,1.0,10.0
850,103,,,,0.536791,603.0,1.0,0.0,stim_butterfinger.jpg,0.0,0.0,3.0,1.0,10.0
851,104,,,,0.528975,603.0,1.0,0.0,stim_snickers.jpg,0.0,0.0,15.0,1.0,10.0
852,105,,,,0.548721,603.0,1.0,0.0,stim_babyruth.jpg,0.0,0.0,2.0,1.0,10.0
853,106,,,,0.723874,603.0,1.0,1.0,stim_fruitsnacks.jpg,0.0,0.0,5.0,1.0,10.0
854,107,,,,0.535601,603.0,1.0,0.0,stim_reeses.jpg,0.0,0.0,13.0,1.0,10.0
855,108,,,,0.600984,603.0,1.0,1.0,stim_kitkat.jpg,0.0,0.0,7.0,1.0,10.0
856,109,,,,0.691955,603.0,1.0,1.0,stim_crunch.jpg,0.0,0.0,4.0,1.0,10.0
857,110,,,,0.537356,603.0,1.0,0.0,stim_almondjoy.jpg,0.0,0.0,1.0,1.0,10.0
858,111,,,,0.612764,603.0,1.0,1.0,stim_whoppers.jpg,0.0,0.0,17.0,1.0,10.0
859,112,,,,0.534252,603.0,1.0,0.0,stim_mrgoodbar.jpg,0.0,0.0,11.0,1.0,10.0
860,113,,,,0.534066,603.0,1.0,0.0,stim_payday.jpg,0.0,0.0,12.0,1.0,10.0
861,114,,,,0.623232,603.0,1.0,0.0,stim_skittles.jpg,0.0,0.0,14.0,1.0,10.0
862,115,,,,0.528284,603.0,1.0,0.0,stim_mmpeanut.jpg,0.0,0.0,10.0,1.0,10.0
863,116,,,,0.473417,603.0,1.0,0.0,stim_milkyway.jpg,0.0,0.0,8.0,1.0,10.0
864,117,,,,0.454382,603.0,1.0,0.0,stim_sourpatchkids.jpg,0.0,0.0,16.0,1.0,10.0
865,118,,,,0.738801,603.0,1.0,0.0,stim_mmchocolate.jpg,0.0,0.0,9.0,1.0,10.0
866,119,,,,0.913693,603.0,1.0,1.0,stim_hundredgrand.jpg,0.0,0.0,6.0,1.0,10.0
867,120,,,,1.093887,603.0,1.0,0.0,stim_snickers.jpg,0.0,0.0,15.0,1.0,10.0
868,121,,,,0.908808,603.0,1.0,0.0,stim_skittles.jpg,0.0,0.0,14.0,1.0,10.0
869,122,,,,12.42993,603.0,1.0,0.0,stim_mmchocolate.jpg,0.0,0.0,9.0,1.0,10.0
870,123,,,,1.478461,603.0,1.0,0.0,stim_reeses.jpg,0.0,0.0,13.0,1.0,10.0
871,124,,,,0.527982,603.0,1.0,0.0,stim_payday.jpg,0.0,0.0,12.0,1.0,10.0
872,125,,,,0.531851,603.0,1.0,1.0,stim_crunch.jpg,0.0,0.0,4.0,1.0,10.0
873,126,,,,0.586159,603.0,1.0,0.0,stim_sourpatchkids.jpg,0.0,0.0,16.0,1.0,10.0
874,127,,,,0.828934,603.0,1.0,0.0,stim_babyruth.jpg,0.0,0.0,2.0,1.0,10.0
875,128,,,,0.592894,603.0,1.0,0.0,stim_mrgoodbar.jpg,0.0,0.0,11.0,1.0,10.0
876,129,,,,0.716251,603.0,1.0,0.0,stim_milkyway.jpg,0.0,0.0,8.0,1.0,10.0
877,130,,,,0.624567,603.0,1.0,1.0,stim_hundredgrand.jpg,0.0,0.0,6.0,1.0,10.0
878,131,,,,0.73495,603.0,1.0,1.0,stim_kitkat.jpg,0.0,0.0,7.0,1.0,10.0
879,132,,,,0.621418,603.0,1.0,0.0,stim_almondjoy.jpg,0.0,0.0,1.0,1.0,10.0
880,133,,,,0.726095,603.0,1.0,1.0,stim_whoppers.jpg,0.0,0.0,17.0,1.0,10.0
881,134,,,,0.626987,603.0,1.0,0.0,stim_mmpeanut.jpg,0.0,0.0,10.0,1.0,10.0
882,135,,,,0.6335,603.0,1.0,0.0,stim_butterfinger.jpg,0.0,0.0,3.0,1.0,10.0
883,136,,,,0.795493,603.0,1.0,1.0,stim_fruitsnacks.jpg,0.0,0.0,5.0,1.0,10.0
884,137,,,,0.906212,603.0,1.0,0.0,stim_sourpatchkids.jpg,0.0,0.0,16.0,1.0,10.0
885,138,,,,0.622872,603.0,1.0,0.0,stim_milkyway.jpg,0.0,0.0,8.0,1.0,10.0
886,139,,,,0.533902,603.0,1.0,1.0,stim_kitkat.jpg,0.0,0.0,7.0,1.0,10.0
887,140,,,,0.672003,603.0,1.0,1.0,stim_hundredgrand.jpg,0.0,0.0,6.0,1.0,10.0
888,141,,,,0.819984,603.0,1.0,0.0,stim_mrgoodbar.jpg,0.0,0.0,11.0,1.0,10.0
889,142,,,,0.905565,603.0,1.0,0.0,stim_snickers.jpg,0.0,0.0,15.0,1.0,10.0
890,143,,,,0.743871,603.0,1.0,0.0,stim_skittles.jpg,0.0,0.0,14.0,1.0,10.0
891,144,,,,0.648109,603.0,1.0,0.0,stim_almondjoy.jpg,0.0,0.0,1.0,1.0,10.0
892,145,,,,0.72353,603.0,1.0,1.0,stim_whoppers.jpg,0.0,0.0,17.0,1.0,10.0
893,146,,,,0.608283,603.0,1.0,1.0,stim_crunch.jpg,0.0,0.0,4.0,1.0,10.0
894,147,,,,0.614575,603.0,1.0,0.0,stim_payday.jpg,0.0,0.0,12.0,1.0,10.0
895,148,,,,0.734647,603.0,1.0,1.0,stim_fruitsnacks.jpg,0.0,0.0,5.0,1.0,10.0
896,149,,,,0.736457,603.0,1.0,0.0,stim_babyruth.jpg,0.0,0.0,2.0,1.0,10.0
897,150,,,,0.721616,603.0,1.0,0.0,stim_butterfinger.jpg,0.0,0.0,3.0,1.0,10.0
898,151,,,,0.817414,603.0,1.0,0.0,stim_reeses.jpg,0.0,0.0,13.0,1.0,10.0
899,152,,,,0.626146,603.0,1.0,0.0,stim_mmpeanut.jpg,0.0,0.0,10.0,1.0,10.0
900,153,,,,0.916163,603.0,1.0,0.0,stim_mmchocolate.jpg,0.0,0.0,9.0,1.0,10.0
901,154,,,,0.531292,603.0,1.0,0.0,stim_mmchocolate.jpg,0.0,0.0,9.0,1.0,10.0
902,155,,,,0.55343,603.0,1.0,0.0,stim_sourpatchkids.jpg,0.0,0.0,16.0,1.0,10.0
903,156,,,,0.532002,603.0,1.0,0.0,stim_babyruth.jpg,0.0,0.0,2.0,1.0,10.0
904,157,,,,0.534049,603.0,1.0,0.0,stim_butterfinger.jpg,0.0,0.0,3.0,1.0,10.0
905,158,,,,0.683803,603.0,1.0,1.0,stim_kitkat.jpg,0.0,0.0,7.0,1.0,10.0
906,159,,,,0.622087,603.0,1.0,1.0,stim_fruitsnacks.jpg,0.0,0.0,5.0,1.0,10.0
907,160,,,,1.234206,603.0,1.0,0.0,stim_skittles.jpg,0.0,0.0,14.0,1.0,10.0
908,161,,,,0.710885,603.0,1.0,0.0,stim_snickers.jpg,0.0,0.0,15.0,1.0,10.0
909,162,,,,0.532712,603.0,1.0,0.0,stim_mrgoodbar.jpg,0.0,0.0,11.0,1.0,10.0
910,163,,,,0.533678,603.0,1.0,1.0,stim_crunch.jpg,0.0,0.0,4.0,1.0,10.0
911,164,,,,0.521229,603.0,1.0,1.0,stim_whoppers.jpg,0.0,0.0,17.0,1.0,10.0
912,165,,,,0.523137,603.0,1.0,1.0,stim_hundredgrand.jpg,0.0,0.0,6.0,1.0,10.0
913,166,,,,0.589369,603.0,1.0,0.0,stim_payday.jpg,0.0,0.0,12.0,1.0,10.0
914,167,,,,0.504656,603.0,1.0,0.0,stim_mmpeanut.jpg,0.0,0.0,10.0,1.0,10.0
915,168,,,,0.439288,603.0,1.0,0.0,stim_almondjoy.jpg,0.0,0.0,1.0,1.0,10.0
916,169,,,,0.493008,603.0,1.0,0.0,stim_milkyway.jpg,0.0,0.0,8.0,1.0,10.0
917,170,,,,0.501497,603.0,1.0,0.0,stim_reeses.jpg,0.0,0.0,13.0,1.0,10.0
918,1,stim_mrgoodbar.jpg,stim_reeses.jpg,1.0,2.85717,605.0,0.0,,,11.0,13.0,0.0,1.0,
919,2,stim_crunch.jpg,stim_milkyway.jpg,2.0,0.868401,605.0,0.0,,,4.0,8.0,0.0,1.0,
920,3,stim_babyruth.jpg,stim_crunch.jpg,1.0,2.437997,605.0,0.0,,,2.0,4.0,0.0,1.0,
921,4,stim_crunch.jpg,stim_kitkat.jpg,2.0,1.436083,605.0,0.0,,,4.0,7.0,0.0,1.0,
922,5,stim_payday.jpg,stim_babyruth.jpg,1.0,1.135496,605.0,0.0,,,12.0,2.0,0.0,1.0,
923,6,stim_whoppers.jpg,stim_babyruth.jpg,2.0,1.218975,605.0,0.0,,,17.0,2.0,0.0,1.0,
924,7,stim_butterfinger.jpg,stim_sourpatchkids.jpg,1.0,0.818206,605.0,0.0,,,3.0,16.0,0.0,1.0,
925,8,stim_mmpeanut.jpg,stim_milkyway.jpg,2.0,0.634523,605.0,0.0,,,10.0,8.0,0.0,1.0,
926,9,stim_payday.jpg,stim_reeses.jpg,1.0,0.834924,605.0,0.0,,,12.0,13.0,0.0,1.0,
927,10,stim_reeses.jpg,stim_mmchocolate.jpg,1.0,4.358377,605.0,0.0,,,13.0,9.0,0.0,1.0,
928,11,stim_reeses.jpg,stim_milkyway.jpg,2.0,0.667916,605.0,0.0,,,13.0,8.0,0.0,1.0,
929,12,stim_reeses.jpg,stim_hundredgrand.jpg,2.0,0.701318,605.0,0.0,,,13.0,6.0,0.0,1.0,
930,13,stim_mmpeanut.jpg,stim_butterfinger.jpg,2.0,0.667913,605.0,0.0,,,10.0,3.0,0.0,1.0,
931,14,stim_milkyway.jpg,stim_whoppers.jpg,1.0,1.051987,605.0,0.0,,,8.0,17.0,0.0,1.0,
932,15,stim_sourpatchkids.jpg,stim_mmchocolate.jpg,2.0,1.102097,605.0,0.0,,,16.0,9.0,0.0,1.0,
933,16,stim_sourpatchkids.jpg,stim_mrgoodbar.jpg,2.0,0.684616,605.0,0.0,,,16.0,11.0,0.0,1.0,
934,17,stim_mrgoodbar.jpg,stim_snickers.jpg,1.0,1.319195,605.0,0.0,,,11.0,15.0,0.0,1.0,
935,18,stim_hundredgrand.jpg,stim_mmchocolate.jpg,1.0,0.684621,605.0,0.0,,,6.0,9.0,0.0,1.0,
936,19,stim_babyruth.jpg,stim_milkyway.jpg,2.0,0.500938,605.0,0.0,,,2.0,8.0,0.0,1.0,
937,20,stim_milkyway.jpg,stim_snickers.jpg,1.0,0.567723,605.0,0.0,,,8.0,15.0,0.0,1.0,
938,21,stim_sourpatchkids.jpg,stim_almondjoy.jpg,2.0,0.834905,605.0,0.0,,,16.0,1.0,0.0,1.0,
939,22,stim_crunch.jpg,stim_mrgoodbar.jpg,2.0,0.834909,605.0,0.0,,,4.0,11.0,0.0,1.0,
940,23,stim_kitkat.jpg,stim_hundredgrand.jpg,2.0,0.551017,605.0,0.0,,,7.0,6.0,0.0,1.0,
941,24,stim_mmchocolate.jpg,stim_babyruth.jpg,2.0,1.636454,605.0,0.0,,,9.0,2.0,0.0,1.0,
942,25,stim_crunch.jpg,stim_mmpeanut.jpg,1.0,1.235677,605.0,0.0,,,4.0,10.0,0.0,1.0,
943,26,stim_sourpatchkids.jpg,stim_skittles.jpg,1.0,7.36419,605.0,0.0,,,16.0,14.0,0.0,1.0,
944,27,stim_butterfinger.jpg,stim_payday.jpg,1.0,2.287709,605.0,0.0,,,3.0,12.0,0.0,1.0,
945,28,stim_almondjoy.jpg,stim_reeses.jpg,1.0,1.402681,605.0,0.0,,,1.0,13.0,0.0,1.0,
946,29,stim_crunch.jpg,stim_hundredgrand.jpg,2.0,0.718026,605.0,0.0,,,4.0,6.0,0.0,1.0,
947,30,stim_hundredgrand.jpg,stim_skittles.jpg,1.0,0.617812,605.0,0.0,,,6.0,14.0,0.0,1.0,
948,31,stim_mmpeanut.jpg,stim_mrgoodbar.jpg,2.0,0.718008,605.0,0.0,,,10.0,11.0,0.0,1.0,
949,32,stim_sourpatchkids.jpg,stim_crunch.jpg,2.0,1.068689,605.0,0.0,,,16.0,4.0,0.0,1.0,
950,33,stim_kitkat.jpg,stim_babyruth.jpg,2.0,0.818207,605.0,0.0,,,7.0,2.0,0.0,1.0,
951,34,stim_payday.jpg,stim_snickers.jpg,1.0,0.818215,605.0,0.0,,,12.0,15.0,0.0,1.0,
952,35,stim_kitkat.jpg,stim_skittles.jpg,1.0,0.985191,605.0,0.0,,,7.0,14.0,0.0,1.0,
953,36,stim_kitkat.jpg,stim_mmchocolate.jpg,1.0,0.651227,605.0,0.0,,,7.0,9.0,0.0,1.0,
954,37,stim_whoppers.jpg,stim_mrgoodbar.jpg,2.0,0.701309,605.0,0.0,,,17.0,11.0,0.0,1.0,
955,38,stim_almondjoy.jpg,stim_payday.jpg,2.0,1.202282,605.0,0.0,,,1.0,12.0,0.0,1.0,
956,39,stim_mrgoodbar.jpg,stim_babyruth.jpg,1.0,1.035312,605.0,0.0,,,11.0,2.0,0.0,1.0,
957,40,stim_reeses.jpg,stim_butterfinger.jpg,2.0,0.551033,605.0,0.0,,,13.0,3.0,0.0,1.0,
958,41,stim_fruitsnacks.jpg,stim_payday.jpg,2.0,0.935109,605.0,0.0,,,5.0,12.0,0.0,1.0,
959,42,stim_payday.jpg,stim_milkyway.jpg,2.0,0.550997,605.0,0.0,,,12.0,8.0,0.0,1.0,
960,43,stim_reeses.jpg,stim_whoppers.jpg,1.0,1.770046,605.0,0.0,,,13.0,17.0,0.0,1.0,
961,44,stim_mrgoodbar.jpg,stim_mmchocolate.jpg,1.0,0.768172,605.0,0.0,,,11.0,9.0,0.0,1.0,
962,45,stim_butterfinger.jpg,stim_crunch.jpg,1.0,0.567736,605.0,0.0,,,3.0,4.0,0.0,1.0,
963,46,stim_kitkat.jpg,stim_butterfinger.jpg,2.0,0.584423,605.0,0.0,,,7.0,3.0,0.0,1.0,
964,47,stim_babyruth.jpg,stim_almondjoy.jpg,2.0,1.436064,605.0,0.0,,,2.0,1.0,0.0,1.0,
965,48,stim_mmpeanut.jpg,stim_payday.jpg,2.0,0.651218,605.0,0.0,,,10.0,12.0,0.0,1.0,
966,49,stim_skittles.jpg,stim_crunch.jpg,2.0,0.718019,605.0,0.0,,,14.0,4.0,0.0,1.0,
967,50,stim_kitkat.jpg,stim_fruitsnacks.jpg,1.0,0.617827,605.0,0.0,,,7.0,5.0,0.0,1.0,
968,51,stim_snickers.jpg,stim_fruitsnacks.jpg,1.0,0.651215,605.0,0.0,,,15.0,5.0,0.0,1.0,
969,52,stim_babyruth.jpg,stim_hundredgrand.jpg,2.0,0.584418,605.0,0.0,,,2.0,6.0,0.0,1.0,
970,53,stim_reeses.jpg,stim_kitkat.jpg,2.0,0.601124,605.0,0.0,,,13.0,7.0,0.0,1.0,
971,54,stim_snickers.jpg,stim_babyruth.jpg,1.0,1.252378,605.0,0.0,,,15.0,2.0,0.0,1.0,
972,55,stim_hundredgrand.jpg,stim_mmpeanut.jpg,1.0,0.584419,605.0,0.0,,,6.0,10.0,0.0,1.0,
973,56,stim_milkyway.jpg,stim_butterfinger.jpg,1.0,2.003851,605.0,0.0,,,8.0,3.0,0.0,1.0,
974,57,stim_skittles.jpg,stim_fruitsnacks.jpg,1.0,1.402667,605.0,0.0,,,14.0,5.0,0.0,1.0,
975,58,stim_mrgoodbar.jpg,stim_skittles.jpg,1.0,0.651216,605.0,0.0,,,11.0,14.0,0.0,1.0,
976,59,stim_milkyway.jpg,stim_almondjoy.jpg,1.0,0.968491,605.0,0.0,,,8.0,1.0,0.0,1.0,
977,60,stim_hundredgrand.jpg,stim_mrgoodbar.jpg,1.0,1.051985,605.0,0.0,,,6.0,11.0,0.0,1.0,
978,61,stim_payday.jpg,stim_kitkat.jpg,1.0,2.204216,605.0,0.0,,,12.0,7.0,0.0,1.0,
979,62,stim_hundredgrand.jpg,stim_sourpatchkids.jpg,1.0,0.60112,605.0,0.0,,,6.0,16.0,0.0,1.0,
980,63,stim_crunch.jpg,stim_whoppers.jpg,1.0,1.052013,605.0,0.0,,,4.0,17.0,0.0,1.0,
981,64,stim_kitkat.jpg,stim_whoppers.jpg,1.0,0.701331,605.0,0.0,,,7.0,17.0,0.0,1.0,
982,65,stim_reeses.jpg,stim_mmpeanut.jpg,1.0,1.05215,605.0,0.0,,,13.0,10.0,0.0,1.0,
983,66,stim_crunch.jpg,stim_payday.jpg,1.0,0.667908,605.0,0.0,,,4.0,12.0,0.0,1.0,
984,67,stim_whoppers.jpg,stim_skittles.jpg,1.0,2.220905,605.0,0.0,,,17.0,14.0,0.0,1.0,
985,68,stim_crunch.jpg,stim_almondjoy.jpg,2.0,1.202279,605.0,0.0,,,4.0,1.0,0.0,1.0,
986,69,stim_kitkat.jpg,stim_snickers.jpg,2.0,0.768128,605.0,0.0,,,7.0,15.0,0.0,1.0,
987,70,stim_reeses.jpg,stim_babyruth.jpg,2.0,0.634514,605.0,0.0,,,13.0,2.0,0.0,1.0,
988,71,stim_mrgoodbar.jpg,stim_milkyway.jpg,2.0,0.534313,605.0,0.0,,,11.0,8.0,0.0,1.0,
989,72,stim_mmchocolate.jpg,stim_snickers.jpg,2.0,0.56773,605.0,0.0,,,9.0,15.0,0.0,1.0,
990,73,stim_mmpeanut.jpg,stim_kitkat.jpg,2.0,0.634521,605.0,0.0,,,10.0,7.0,0.0,1.0,
991,74,stim_hundredgrand.jpg,stim_payday.jpg,1.0,0.884999,605.0,0.0,,,6.0,12.0,0.0,1.0,
992,75,stim_snickers.jpg,stim_skittles.jpg,1.0,0.985215,605.0,0.0,,,15.0,14.0,0.0,1.0,
993,76,stim_almondjoy.jpg,stim_whoppers.jpg,1.0,0.734715,605.0,0.0,,,1.0,17.0,0.0,1.0,
994,77,stim_almondjoy.jpg,stim_fruitsnacks.jpg,1.0,0.684631,605.0,0.0,,,1.0,5.0,0.0,1.0,
995,78,stim_mmpeanut.jpg,stim_fruitsnacks.jpg,1.0,1.252385,605.0,0.0,,,10.0,5.0,0.0,1.0,
996,79,stim_mmchocolate.jpg,stim_whoppers.jpg,2.0,2.838775,605.0,0.0,,,9.0,17.0,0.0,1.0,
997,80,stim_skittles.jpg,stim_babyruth.jpg,2.0,0.868288,605.0,0.0,,,14.0,2.0,0.0,1.0,
998,81,stim_crunch.jpg,stim_reeses.jpg,1.0,0.651213,605.0,0.0,,,4.0,13.0,0.0,1.0,
999,82,stim_whoppers.jpg,stim_hundredgrand.jpg,2.0,0.567719,605.0,0.0,,,17.0,6.0,0.0,1.0,
1000,83,stim_mmpeanut.jpg,stim_almondjoy.jpg,2.0,0.701318,605.0,0.0,,,10.0,1.0,0.0,1.0,
1001,84,stim_snickers.jpg,stim_sourpatchkids.jpg,1.0,0.617817,605.0,0.0,,,15.0,16.0,0.0,1.0,
1002,85,stim_milkyway.jpg,stim_sourpatchkids.jpg,1.0,0.551036,605.0,0.0,,,8.0,16.0,0.0,1.0,
1003,86,stim_snickers.jpg,stim_mmpeanut.jpg,1.0,0.56773,605.0,0.0,,,15.0,10.0,0.0,1.0,
1004,87,stim_hundredgrand.jpg,stim_almondjoy.jpg,1.0,0.834902,605.0,0.0,,,6.0,1.0,0.0,1.0,
1005,88,stim_butterfinger.jpg,stim_babyruth.jpg,1.0,0.651214,605.0,0.0,,,3.0,2.0,0.0,1.0,
1006,89,stim_payday.jpg,stim_skittles.jpg,1.0,0.718017,605.0,0.0,,,12.0,14.0,0.0,1.0,
1007,90,stim_fruitsnacks.jpg,stim_whoppers.jpg,2.0,0.784816,605.0,0.0,,,5.0,17.0,0.0,1.0,
1008,91,stim_kitkat.jpg,stim_milkyway.jpg,2.0,0.985202,605.0,0.0,,,7.0,8.0,0.0,1.0,
1009,92,stim_mmchocolate.jpg,stim_almondjoy.jpg,2.0,0.834906,605.0,0.0,,,9.0,1.0,0.0,1.0,
1010,93,stim_babyruth.jpg,stim_fruitsnacks.jpg,1.0,0.500941,605.0,0.0,,,2.0,5.0,0.0,1.0,
1011,94,stim_sourpatchkids.jpg,stim_payday.jpg,2.0,0.500925,605.0,0.0,,,16.0,12.0,0.0,1.0,
1012,95,stim_mmpeanut.jpg,stim_mmchocolate.jpg,2.0,3.222882,605.0,0.0,,,10.0,9.0,0.0,1.0,
1013,96,stim_hundredgrand.jpg,stim_butterfinger.jpg,1.0,1.636448,605.0,0.0,,,6.0,3.0,0.0,1.0,
1014,97,stim_butterfinger.jpg,stim_whoppers.jpg,1.0,0.81823,605.0,0.0,,,3.0,17.0,0.0,1.0,
1015,98,stim_payday.jpg,stim_mmchocolate.jpg,1.0,0.751409,605.0,0.0,,,12.0,9.0,0.0,1.0,
1016,99,stim_snickers.jpg,stim_reeses.jpg,1.0,0.484228,605.0,0.0,,,15.0,13.0,0.0,1.0,
1017,100,stim_butterfinger.jpg,stim_snickers.jpg,1.0,1.452766,605.0,0.0,,,3.0,15.0,0.0,1.0,
1018,101,stim_crunch.jpg,stim_mmchocolate.jpg,1.0,0.617819,605.0,0.0,,,4.0,9.0,0.0,1.0,
1019,102,stim_whoppers.jpg,stim_mmpeanut.jpg,1.0,1.085389,605.0,0.0,,,17.0,10.0,0.0,1.0,
1020,103,stim_mrgoodbar.jpg,stim_fruitsnacks.jpg,1.0,0.601114,605.0,0.0,,,11.0,5.0,0.0,1.0,
1021,104,stim_mmpeanut.jpg,stim_sourpatchkids.jpg,1.0,1.185578,605.0,0.0,,,10.0,16.0,0.0,1.0,
1022,105,stim_reeses.jpg,stim_skittles.jpg,1.0,0.935102,605.0,0.0,,,13.0,14.0,0.0,1.0,
1023,106,stim_kitkat.jpg,stim_sourpatchkids.jpg,1.0,1.001899,605.0,0.0,,,7.0,16.0,0.0,1.0,
1024,107,stim_butterfinger.jpg,stim_fruitsnacks.jpg,1.0,0.65121,605.0,0.0,,,3.0,5.0,0.0,1.0,
1025,108,stim_mrgoodbar.jpg,stim_payday.jpg,1.0,0.885003,605.0,0.0,,,11.0,12.0,0.0,1.0,
1026,109,stim_fruitsnacks.jpg,stim_hundredgrand.jpg,2.0,0.601124,605.0,0.0,,,5.0,6.0,0.0,1.0,
1027,110,stim_crunch.jpg,stim_fruitsnacks.jpg,1.0,0.601152,605.0,0.0,,,4.0,5.0,0.0,1.0,
1028,111,stim_whoppers.jpg,stim_payday.jpg,2.0,0.567716,605.0,0.0,,,17.0,12.0,0.0,1.0,
1029,112,stim_almondjoy.jpg,stim_kitkat.jpg,1.0,0.78483,605.0,0.0,,,1.0,7.0,0.0,1.0,
1030,113,stim_hundredgrand.jpg,stim_snickers.jpg,2.0,0.450825,605.0,0.0,,,6.0,15.0,0.0,1.0,
1031,114,stim_mrgoodbar.jpg,stim_butterfinger.jpg,2.0,0.868317,605.0,0.0,,,11.0,3.0,0.0,1.0,
1032,115,stim_almondjoy.jpg,stim_mrgoodbar.jpg,2.0,0.834896,605.0,0.0,,,1.0,11.0,0.0,1.0,
1033,116,stim_mmpeanut.jpg,stim_babyruth.jpg,2.0,0.701316,605.0,0.0,,,10.0,2.0,0.0,1.0,
1034,117,stim_almondjoy.jpg,stim_snickers.jpg,1.0,1.920332,605.0,0.0,,,1.0,15.0,0.0,1.0,
1035,118,stim_skittles.jpg,stim_butterfinger.jpg,2.0,0.484232,605.0,0.0,,,14.0,3.0,0.0,1.0,
1036,119,stim_reeses.jpg,stim_fruitsnacks.jpg,1.0,0.935178,605.0,0.0,,,13.0,5.0,0.0,1.0,
1037,120,stim_milkyway.jpg,stim_fruitsnacks.jpg,1.0,0.75141,605.0,0.0,,,8.0,5.0,0.0,1.0,
1038,121,stim_mrgoodbar.jpg,stim_kitkat.jpg,1.0,0.834897,605.0,0.0,,,11.0,7.0,0.0,1.0,
1039,122,stim_fruitsnacks.jpg,stim_mmchocolate.jpg,2.0,0.83491,605.0,0.0,,,5.0,9.0,0.0,1.0,
1040,123,stim_snickers.jpg,stim_whoppers.jpg,1.0,0.851597,605.0,0.0,,,15.0,17.0,0.0,1.0,
1041,124,stim_milkyway.jpg,stim_skittles.jpg,1.0,0.651209,605.0,0.0,,,8.0,14.0,0.0,1.0,
1042,125,stim_whoppers.jpg,stim_sourpatchkids.jpg,1.0,0.834935,605.0,0.0,,,17.0,16.0,0.0,1.0,
1043,126,stim_almondjoy.jpg,stim_skittles.jpg,1.0,0.601114,605.0,0.0,,,1.0,14.0,0.0,1.0,
1044,127,stim_hundredgrand.jpg,stim_milkyway.jpg,1.0,1.419393,605.0,0.0,,,6.0,8.0,0.0,1.0,
1045,128,stim_skittles.jpg,stim_mmchocolate.jpg,2.0,0.951799,605.0,0.0,,,14.0,9.0,0.0,1.0,
1046,129,stim_almondjoy.jpg,stim_butterfinger.jpg,2.0,0.818222,605.0,0.0,,,1.0,3.0,0.0,1.0,
1047,130,stim_sourpatchkids.jpg,stim_babyruth.jpg,2.0,0.517621,605.0,0.0,,,16.0,2.0,0.0,1.0,
1048,131,stim_sourpatchkids.jpg,stim_reeses.jpg,2.0,0.651234,605.0,0.0,,,16.0,13.0,0.0,1.0,
1049,132,stim_sourpatchkids.jpg,stim_fruitsnacks.jpg,1.0,1.035299,605.0,0.0,,,16.0,5.0,0.0,1.0,
1050,133,stim_snickers.jpg,stim_crunch.jpg,1.0,1.152185,605.0,0.0,,,15.0,4.0,0.0,1.0,
1051,134,stim_milkyway.jpg,stim_mmchocolate.jpg,1.0,1.369285,605.0,0.0,,,8.0,9.0,0.0,1.0,
1052,135,stim_skittles.jpg,stim_mmpeanut.jpg,2.0,1.43607,605.0,0.0,,,14.0,10.0,0.0,1.0,
1053,136,stim_mmchocolate.jpg,stim_butterfinger.jpg,2.0,0.734723,605.0,0.0,,,9.0,3.0,0.0,1.0,
1054,1,,,,1.803338,605.0,1.0,1.0,stim_butterfinger.jpg,0.0,0.0,3.0,1.0,10.0
1055,2,,,,2.256354,605.0,1.0,0.0,stim_fruitsnacks.jpg,0.0,0.0,5.0,1.0,10.0
1056,3,,,,1.671035,605.0,1.0,0.0,stim_crunch.jpg,0.0,0.0,4.0,1.0,10.0
1057,4,,,,1.520722,605.0,1.0,0.0,stim_reeses.jpg,0.0,0.0,13.0,1.0,10.0
1058,5,,,,1.471949,605.0,1.0,0.0,stim_snickers.jpg,0.0,0.0,15.0,1.0,10.0
1059,6,,,,1.119959,605.0,1.0,1.0,stim_hundredgrand.jpg,0.0,0.0,6.0,1.0,10.0
1060,7,,,,1.020225,605.0,1.0,1.0,stim_milkyway.jpg,0.0,0.0,8.0,1.0,10.0
1061,8,,,,1.554135,605.0,1.0,0.0,stim_kitkat.jpg,0.0,0.0,7.0,1.0,10.0
1062,9,,,,1.220137,605.0,1.0,0.0,stim_mmchocolate.jpg,0.0,0.0,9.0,1.0,10.0
1063,10,,,,2.440122,605.0,1.0,0.0,stim_almondjoy.jpg,0.0,0.0,1.0,1.0,10.0
1064,11,,,,1.455545,605.0,1.0,0.0,stim_sourpatchkids.jpg,0.0,0.0,16.0,1.0,10.0
1065,12,,,,1.037881,605.0,1.0,0.0,stim_skittles.jpg,0.0,0.0,14.0,1.0,10.0
1066,13,,,,1.687738,605.0,1.0,0.0,stim_babyruth.jpg,0.0,0.0,2.0,1.0,10.0
1067,14,,,,1.522148,605.0,1.0,0.0,stim_mmpeanut.jpg,0.0,0.0,10.0,1.0,10.0
1068,15,,,,2.239273,605.0,1.0,1.0,stim_payday.jpg,0.0,0.0,12.0,1.0,10.0
1069,16,,,,1.504968,605.0,1.0,0.0,stim_whoppers.jpg,0.0,0.0,17.0,1.0,10.0
1070,17,,,,2.38949,605.0,1.0,1.0,stim_mrgoodbar.jpg,0.0,0.0,11.0,1.0,10.0
1071,18,,,,1.01977,605.0,1.0,0.0,stim_sourpatchkids.jpg,0.0,0.0,16.0,1.0,10.0
1072,19,,,,1.021203,605.0,1.0,0.0,stim_reeses.jpg,0.0,0.0,13.0,1.0,10.0
1073,20,,,,0.96965,605.0,1.0,0.0,stim_whoppers.jpg,0.0,0.0,17.0,1.0,10.0
1074,21,,,,1.036928,605.0,1.0,0.0,stim_kitkat.jpg,0.0,0.0,7.0,1.0,10.0
1075,22,,,,1.505473,605.0,1.0,0.0,stim_almondjoy.jpg,0.0,0.0,1.0,1.0,10.0
1076,23,,,,0.819857,605.0,1.0,1.0,stim_milkyway.jpg,0.0,0.0,8.0,1.0,10.0
1077,24,,,,1.121358,605.0,1.0,1.0,stim_mrgoodbar.jpg,0.0,0.0,11.0,1.0,10.0
1078,25,,,,1.021187,605.0,1.0,0.0,stim_crunch.jpg,0.0,0.0,4.0,1.0,10.0
1079,26,,,,1.070847,605.0,1.0,0.0,stim_mmchocolate.jpg,0.0,0.0,9.0,1.0,10.0
1080,27,,,,1.004508,605.0,1.0,0.0,stim_babyruth.jpg,0.0,0.0,2.0,1.0,10.0
1081,28,,,,0.886655,605.0,1.0,1.0,stim_butterfinger.jpg,0.0,0.0,3.0,1.0,10.0
1082,29,,,,1.120905,605.0,1.0,0.0,stim_snickers.jpg,0.0,0.0,15.0,1.0,10.0
1083,30,,,,1.020224,605.0,1.0,0.0,stim_mmpeanut.jpg,0.0,0.0,10.0,1.0,10.0
1084,31,,,,1.020263,605.0,1.0,1.0,stim_payday.jpg,0.0,0.0,12.0,1.0,10.0
1085,32,,,,0.937675,605.0,1.0,1.0,stim_hundredgrand.jpg,0.0,0.0,6.0,1.0,10.0
1086,33,,,,0.837037,605.0,1.0,0.0,stim_skittles.jpg,0.0,0.0,14.0,1.0,10.0
1087,34,,,,0.969671,605.0,1.0,0.0,stim_fruitsnacks.jpg,0.0,0.0,5.0,1.0,10.0
1088,35,,,,1.72114,605.0,1.0,0.0,stim_babyruth.jpg,0.0,0.0,2.0,1.0,10.0
1089,36,,,,0.887573,605.0,1.0,1.0,stim_mrgoodbar.jpg,0.0,0.0,11.0,1.0,10.0
1090,37,,,,0.837488,605.0,1.0,0.0,stim_mmpeanut.jpg,0.0,0.0,10.0,1.0,10.0
1091,38,,,,1.019764,605.0,1.0,0.0,stim_whoppers.jpg,0.0,0.0,17.0,1.0,10.0
1092,39,,,,0.837525,605.0,1.0,1.0,stim_payday.jpg,0.0,0.0,12.0,1.0,10.0
1093,40,,,,0.903807,605.0,1.0,0.0,stim_reeses.jpg,0.0,0.0,13.0,1.0,10.0
1094,41,,,,0.95439,605.0,1.0,1.0,stim_butterfinger.jpg,0.0,0.0,3.0,1.0,10.0
1095,42,,,,0.852778,605.0,1.0,0.0,stim_mmchocolate.jpg,0.0,0.0,9.0,1.0,10.0
1096,43,,,,0.986854,605.0,1.0,1.0,stim_hundredgrand.jpg,0.0,0.0,6.0,1.0,10.0
1097,44,,,,0.670022,605.0,1.0,0.0,stim_skittles.jpg,0.0,0.0,14.0,1.0,10.0
1098,45,,,,0.904298,605.0,1.0,1.0,stim_milkyway.jpg,0.0,0.0,8.0,1.0,10.0
1099,46,,,,1.154306,605.0,1.0,0.0,stim_crunch.jpg,0.0,0.0,4.0,1.0,10.0
1100,47,,,,0.837481,605.0,1.0,0.0,stim_fruitsnacks.jpg,0.0,0.0,5.0,1.0,10.0
1101,48,,,,1.12138,605.0,1.0,0.0,stim_snickers.jpg,0.0,0.0,15.0,1.0,10.0
1102,49,,,,0.886153,605.0,1.0,0.0,stim_almondjoy.jpg,0.0,0.0,1.0,1.0,10.0
1103,50,,,,0.735858,605.0,1.0,0.0,stim_sourpatchkids.jpg,0.0,0.0,16.0,1.0,10.0
1104,51,,,,0.652385,605.0,1.0,0.0,stim_kitkat.jpg,0.0,0.0,7.0,1.0,10.0
1105,52,,,,0.754015,605.0,1.0,0.0,stim_kitkat.jpg,0.0,0.0,7.0,1.0,10.0
1106,53,,,,0.685756,605.0,1.0,0.0,stim_mmpeanut.jpg,0.0,0.0,10.0,1.0,10.0
1107,54,,,,0.803602,605.0,1.0,1.0,stim_mrgoodbar.jpg,0.0,0.0,11.0,1.0,10.0
1108,55,,,,0.736833,605.0,1.0,1.0,stim_milkyway.jpg,0.0,0.0,8.0,1.0,10.0
1109,56,,,,0.920559,605.0,1.0,0.0,stim_babyruth.jpg,0.0,0.0,2.0,1.0,10.0
1110,57,,,,0.703432,605.0,1.0,0.0,stim_crunch.jpg,0.0,0.0,4.0,1.0,10.0
1111,58,,,,0.87041,605.0,1.0,1.0,stim_hundredgrand.jpg,0.0,0.0,6.0,1.0,10.0
1112,59,,,,0.803643,605.0,1.0,0.0,stim_fruitsnacks.jpg,0.0,0.0,5.0,1.0,10.0
1113,60,,,,0.836533,605.0,1.0,0.0,stim_reeses.jpg,0.0,0.0,13.0,1.0,10.0
1114,61,,,,0.770244,605.0,1.0,1.0,stim_butterfinger.jpg,0.0,0.0,3.0,1.0,10.0
1115,62,,,,0.653333,605.0,1.0,1.0,stim_payday.jpg,0.0,0.0,12.0,1.0,10.0
1116,63,,,,0.553241,605.0,1.0,0.0,stim_skittles.jpg,0.0,0.0,14.0,1.0,10.0
1117,64,,,,0.719176,605.0,1.0,0.0,stim_sourpatchkids.jpg,0.0,0.0,16.0,1.0,10.0
1118,65,,,,0.737309,605.0,1.0,0.0,stim_almondjoy.jpg,0.0,0.0,1.0,1.0,10.0
1119,66,,,,0.6858,605.0,1.0,0.0,stim_whoppers.jpg,0.0,0.0,17.0,1.0,10.0
1120,67,,,,0.836063,605.0,1.0,0.0,stim_mmchocolate.jpg,0.0,0.0,9.0,1.0,10.0
1121,68,,,,0.736812,605.0,1.0,0.0,stim_snickers.jpg,0.0,0.0,15.0,1.0,10.0
1122,69,,,,0.55317,605.0,1.0,0.0,stim_skittles.jpg,0.0,0.0,14.0,1.0,10.0
1123,70,,,,0.837509,605.0,1.0,0.0,stim_crunch.jpg,0.0,0.0,4.0,1.0,10.0
1124,71,,,,0.636202,605.0,1.0,1.0,stim_payday.jpg,0.0,0.0,12.0,1.0,10.0
1125,72,,,,0.753993,605.0,1.0,0.0,stim_reeses.jpg,0.0,0.0,13.0,1.0,10.0
1126,73,,,,0.669979,605.0,1.0,0.0,stim_whoppers.jpg,0.0,0.0,17.0,1.0,10.0
1127,74,,,,0.819815,605.0,1.0,1.0,stim_mrgoodbar.jpg,0.0,0.0,11.0,1.0,10.0
1128,75,,,,0.603715,605.0,1.0,1.0,stim_hundredgrand.jpg,0.0,0.0,6.0,1.0,10.0
1129,76,,,,0.736382,605.0,1.0,1.0,stim_milkyway.jpg,0.0,0.0,8.0,1.0,10.0
1130,77,,,,0.836997,605.0,1.0,0.0,stim_babyruth.jpg,0.0,0.0,2.0,1.0,10.0
1131,78,,,,0.618987,605.0,1.0,0.0,stim_kitkat.jpg,0.0,0.0,7.0,1.0,10.0
1132,79,,,,0.653323,605.0,1.0,0.0,stim_mmchocolate.jpg,0.0,0.0,9.0,1.0,10.0
1133,80,,,,0.536953,605.0,1.0,0.0,stim_mmpeanut.jpg,0.0,0.0,10.0,1.0,10.0
1134,81,,,,0.670031,605.0,1.0,0.0,stim_almondjoy.jpg,0.0,0.0,1.0,1.0,10.0
1135,82,,,,0.55269,605.0,1.0,0.0,stim_sourpatchkids.jpg,0.0,0.0,16.0,1.0,10.0
1136,83,,,,0.736369,605.0,1.0,1.0,stim_butterfinger.jpg,0.0,0.0,3.0,1.0,10.0
1137,84,,,,0.769284,605.0,1.0,0.0,stim_fruitsnacks.jpg,0.0,0.0,5.0,1.0,10.0
1138,85,,,,0.753022,605.0,1.0,0.0,stim_snickers.jpg,0.0,0.0,15.0,1.0,10.0
1139,86,,,,1.528572,605.0,1.0,0.0,stim_skittles.jpg,0.0,0.0,14.0,1.0,10.0
1140,87,,,,0.769695,605.0,1.0,0.0,stim_babyruth.jpg,0.0,0.0,2.0,1.0,10.0
1141,88,,,,0.569412,605.0,1.0,0.0,stim_crunch.jpg,0.0,0.0,4.0,1.0,10.0
1142,89,,,,0.653337,605.0,1.0,1.0,stim_hundredgrand.jpg,0.0,0.0,6.0,1.0,10.0
1143,90,,,,0.619926,605.0,1.0,0.0,stim_mmpeanut.jpg,0.0,0.0,10.0,1.0,10.0
1144,91,,,,0.569353,605.0,1.0,1.0,stim_milkyway.jpg,0.0,0.0,8.0,1.0,10.0
1145,92,,,,0.502532,605.0,1.0,0.0,stim_sourpatchkids.jpg,0.0,0.0,16.0,1.0,10.0
1146,93,,,,0.519278,605.0,1.0,0.0,stim_fruitsnacks.jpg,0.0,0.0,5.0,1.0,10.0
1147,94,,,,0.570285,605.0,1.0,0.0,stim_almondjoy.jpg,0.0,0.0,1.0,1.0,10.0
1148,95,,,,0.552665,605.0,1.0,0.0,stim_reeses.jpg,0.0,0.0,13.0,1.0,10.0
1149,96,,,,0.636143,605.0,1.0,1.0,stim_butterfinger.jpg,0.0,0.0,3.0,1.0,10.0
1150,97,,,,0.585593,605.0,1.0,0.0,stim_mmchocolate.jpg,0.0,0.0,9.0,1.0,10.0
1151,98,,,,0.653799,605.0,1.0,0.0,stim_kitkat.jpg,0.0,0.0,7.0,1.0,10.0
1152,99,,,,0.619485,605.0,1.0,0.0,stim_snickers.jpg,0.0,0.0,15.0,1.0,10.0
1153,100,,,,0.552185,605.0,1.0,0.0,stim_whoppers.jpg,0.0,0.0,17.0,1.0,10.0
1154,101,,,,0.63712,605.0,1.0,1.0,stim_payday.jpg,0.0,0.0,12.0,1.0,10.0
1155,102,,,,0.55314,605.0,1.0,1.0,stim_mrgoodbar.jpg,0.0,0.0,11.0,1.0,10.0
1156,103,,,,0.737287,605.0,1.0,0.0,stim_mmpeanut.jpg,0.0,0.0,10.0,1.0,10.0
1157,104,,,,0.619444,605.0,1.0,0.0,stim_snickers.jpg,0.0,0.0,15.0,1.0,10.0
1158,105,,,,0.536422,605.0,1.0,0.0,stim_sourpatchkids.jpg,0.0,0.0,16.0,1.0,10.0
1159,106,,,,7.682586,605.0,1.0,0.0,stim_crunch.jpg,0.0,0.0,4.0,1.0,10.0
1160,107,,,,0.686599,605.0,1.0,0.0,stim_reeses.jpg,0.0,0.0,13.0,1.0,10.0
1161,108,,,,0.585595,605.0,1.0,0.0,stim_almondjoy.jpg,0.0,0.0,1.0,1.0,10.0
1162,109,,,,0.637105,605.0,1.0,1.0,stim_milkyway.jpg,0.0,0.0,8.0,1.0,10.0
1163,110,,,,0.568893,605.0,1.0,0.0,stim_skittles.jpg,0.0,0.0,14.0,1.0,10.0
1164,111,,,,0.703896,605.0,1.0,1.0,stim_mrgoodbar.jpg,0.0,0.0,11.0,1.0,10.0
1165,112,,,,0.619942,605.0,1.0,0.0,stim_kitkat.jpg,0.0,0.0,7.0,1.0,10.0
1166,113,,,,0.535438,605.0,1.0,0.0,stim_fruitsnacks.jpg,0.0,0.0,5.0,1.0,10.0
1167,114,,,,0.70247,605.0,1.0,1.0,stim_butterfinger.jpg,0.0,0.0,3.0,1.0,10.0
1168,115,,,,0.636161,605.0,1.0,0.0,stim_babyruth.jpg,0.0,0.0,2.0,1.0,10.0
1169,116,,,,0.636638,605.0,1.0,0.0,stim_whoppers.jpg,0.0,0.0,17.0,1.0,10.0
1170,117,,,,0.602274,605.0,1.0,0.0,stim_mmchocolate.jpg,0.0,0.0,9.0,1.0,10.0
1171,118,,,,0.703905,605.0,1.0,1.0,stim_payday.jpg,0.0,0.0,12.0,1.0,10.0
1172,119,,,,0.653331,605.0,1.0,1.0,stim_hundredgrand.jpg,0.0,0.0,6.0,1.0,10.0
1173,120,,,,0.653411,605.0,1.0,0.0,stim_fruitsnacks.jpg,0.0,0.0,5.0,1.0,10.0
1174,121,,,,1.02071,605.0,1.0,0.0,stim_crunch.jpg,0.0,0.0,4.0,1.0,10.0
1175,122,,,,0.637123,605.0,1.0,0.0,stim_reeses.jpg,0.0,0.0,13.0,1.0,10.0
1176,123,,,,0.652364,605.0,1.0,1.0,stim_payday.jpg,0.0,0.0,12.0,1.0,10.0
1177,124,,,,0.587008,605.0,1.0,0.0,stim_snickers.jpg,0.0,0.0,15.0,1.0,10.0
1178,125,,,,0.520207,605.0,1.0,1.0,stim_milkyway.jpg,0.0,0.0,8.0,1.0,10.0
1179,126,,,,0.568892,605.0,1.0,0.0,stim_kitkat.jpg,0.0,0.0,7.0,1.0,10.0
1180,127,,,,0.63711,605.0,1.0,0.0,stim_babyruth.jpg,0.0,0.0,2.0,1.0,10.0
1181,128,,,,0.637113,605.0,1.0,1.0,stim_butterfinger.jpg,0.0,0.0,3.0,1.0,10.0
1182,129,,,,0.568891,605.0,1.0,0.0,stim_whoppers.jpg,0.0,0.0,17.0,1.0,10.0
1183,130,,,,0.636648,605.0,1.0,0.0,stim_almondjoy.jpg,0.0,0.0,1.0,1.0,10.0
1184,131,,,,0.536436,605.0,1.0,0.0,stim_sourpatchkids.jpg,0.0,0.0,16.0,1.0,10.0
1185,132,,,,0.56888,605.0,1.0,0.0,stim_mmpeanut.jpg,0.0,0.0,10.0,1.0,10.0
1186,133,,,,0.586541,605.0,1.0,0.0,stim_skittles.jpg,0.0,0.0,14.0,1.0,10.0
1187,134,,,,0.687204,605.0,1.0,1.0,stim_mrgoodbar.jpg,0.0,0.0,11.0,1.0,10.0
1188,135,,,,0.568913,605.0,1.0,0.0,stim_mmchocolate.jpg,0.0,0.0,9.0,1.0,10.0
1189,136,,,,0.519254,605.0,1.0,1.0,stim_hundredgrand.jpg,0.0,0.0,6.0,1.0,10.0
1190,137,,,,0.653815,605.0,1.0,0.0,stim_almondjoy.jpg,0.0,0.0,1.0,1.0,10.0
1191,138,,,,0.519246,605.0,1.0,1.0,stim_payday.jpg,0.0,0.0,12.0,1.0,10.0
1192,139,,,,0.636158,605.0,1.0,0.0,stim_kitkat.jpg,0.0,0.0,7.0,1.0,10.0
1193,140,,,,0.552177,605.0,1.0,0.0,stim_reeses.jpg,0.0,0.0,13.0,1.0,10.0
1194,141,,,,0.670515,605.0,1.0,1.0,stim_mrgoodbar.jpg,0.0,0.0,11.0,1.0,10.0
1195,142,,,,0.60368,605.0,1.0,0.0,stim_whoppers.jpg,0.0,0.0,17.0,1.0,10.0
1196,143,,,,0.636167,605.0,1.0,0.0,stim_crunch.jpg,0.0,0.0,4.0,1.0,10.0
1197,144,,,,0.618985,605.0,1.0,1.0,stim_milkyway.jpg,0.0,0.0,8.0,1.0,10.0
1198,145,,,,0.535424,605.0,1.0,0.0,stim_mmchocolate.jpg,0.0,0.0,9.0,1.0,10.0
1199,146,,,,0.586035,605.0,1.0,0.0,stim_snickers.jpg,0.0,0.0,15.0,1.0,10.0
1200,147,,,,0.602263,605.0,1.0,0.0,stim_fruitsnacks.jpg,0.0,0.0,5.0,1.0,10.0
1201,148,,,,0.587029,605.0,1.0,1.0,stim_hundredgrand.jpg,0.0,0.0,6.0,1.0,10.0
1202,149,,,,0.720105,605.0,1.0,0.0,stim_mmpeanut.jpg,0.0,0.0,10.0,1.0,10.0
1203,150,,,,0.56937,605.0,1.0,1.0,stim_butterfinger.jpg,0.0,0.0,3.0,1.0,10.0
1204,151,,,,0.637103,605.0,1.0,0.0,stim_sourpatchkids.jpg,0.0,0.0,16.0,1.0,10.0
1205,152,,,,0.720596,605.0,1.0,0.0,stim_babyruth.jpg,0.0,0.0,2.0,1.0,10.0
1206,153,,,,0.603254,605.0,1.0,0.0,stim_skittles.jpg,0.0,0.0,14.0,1.0,10.0
1207,154,,,,0.602307,605.0,1.0,0.0,stim_reeses.jpg,0.0,0.0,13.0,1.0,10.0
1208,155,,,,0.602281,605.0,1.0,1.0,stim_payday.jpg,0.0,0.0,12.0,1.0,10.0
1209,156,,,,0.585555,605.0,1.0,0.0,stim_whoppers.jpg,0.0,0.0,17.0,1.0,10.0
1210,157,,,,0.852754,605.0,1.0,0.0,stim_crunch.jpg,0.0,0.0,4.0,1.0,10.0
1211,158,,,,0.65333,605.0,1.0,1.0,stim_mrgoodbar.jpg,0.0,0.0,11.0,1.0,10.0
1212,159,,,,0.569835,605.0,1.0,0.0,stim_skittles.jpg,0.0,0.0,14.0,1.0,10.0
1213,160,,,,0.518836,605.0,1.0,0.0,stim_sourpatchkids.jpg,0.0,0.0,16.0,1.0,10.0
1214,161,,,,0.619507,605.0,1.0,1.0,stim_milkyway.jpg,0.0,0.0,8.0,1.0,10.0
1215,162,,,,0.836078,605.0,1.0,0.0,stim_kitkat.jpg,0.0,0.0,7.0,1.0,10.0
1216,163,,,,0.786926,605.0,1.0,0.0,stim_mmchocolate.jpg,0.0,0.0,9.0,1.0,10.0
1217,164,,,,0.618956,605.0,1.0,1.0,stim_hundredgrand.jpg,0.0,0.0,6.0,1.0,10.0
1218,165,,,,0.552179,605.0,1.0,0.0,stim_babyruth.jpg,0.0,0.0,2.0,1.0,10.0
1219,166,,,,0.569837,605.0,1.0,0.0,stim_fruitsnacks.jpg,0.0,0.0,5.0,1.0,10.0
1220,167,,,,0.553628,605.0,1.0,0.0,stim_mmpeanut.jpg,0.0,0.0,10.0,1.0,10.0
1221,168,,,,0.552171,605.0,1.0,0.0,stim_almondjoy.jpg,0.0,0.0,1.0,1.0,10.0
1222,169,,,,0.519254,605.0,1.0,0.0,stim_snickers.jpg,0.0,0.0,15.0,1.0,10.0
1223,170,,,,0.61895,605.0,1.0,1.0,stim_butterfinger.jpg,0.0,0.0,3.0,1.0,10.0
1224,1,stim_sourpatchkids.jpg,stim_butterfinger.jpg,1.0,1.053743,606.0,0.0,,,16.0,3.0,0.0,1.0,
1225,2,stim_crunch.jpg,stim_payday.jpg,1.0,0.718014,606.0,0.0,,,4.0,12.0,0.0,1.0,
1226,3,stim_butterfinger.jpg,stim_reeses.jpg,1.0,5.093162,606.0,0.0,,,3.0,13.0,0.0,1.0,
1227,4,stim_mrgoodbar.jpg,stim_sourpatchkids.jpg,2.0,0.768121,606.0,0.0,,,11.0,16.0,0.0,1.0,
1228,5,stim_babyruth.jpg,stim_mmpeanut.jpg,2.0,1.636457,606.0,0.0,,,2.0,10.0,0.0,1.0,
1229,6,stim_payday.jpg,stim_hundredgrand.jpg,2.0,1.001898,606.0,0.0,,,12.0,6.0,0.0,1.0,
1230,7,stim_mmpeanut.jpg,stim_butterfinger.jpg,1.0,0.935098,606.0,0.0,,,10.0,3.0,0.0,1.0,
1231,8,stim_crunch.jpg,stim_reeses.jpg,1.0,0.667914,606.0,0.0,,,4.0,13.0,0.0,1.0,
1232,9,stim_sourpatchkids.jpg,stim_mmpeanut.jpg,1.0,1.052011,606.0,0.0,,,16.0,10.0,0.0,1.0,
1233,10,stim_payday.jpg,stim_butterfinger.jpg,2.0,1.987138,606.0,0.0,,,12.0,3.0,0.0,1.0,
1234,11,stim_skittles.jpg,stim_almondjoy.jpg,1.0,0.651221,606.0,0.0,,,14.0,1.0,0.0,1.0,
1235,12,stim_payday.jpg,stim_whoppers.jpg,2.0,1.636472,606.0,0.0,,,12.0,17.0,0.0,1.0,
1236,13,stim_whoppers.jpg,stim_milkyway.jpg,2.0,0.80151,606.0,0.0,,,17.0,8.0,0.0,1.0,
1237,14,stim_milkyway.jpg,stim_mmchocolate.jpg,2.0,0.634517,606.0,0.0,,,8.0,9.0,0.0,1.0,
1238,15,stim_whoppers.jpg,stim_reeses.jpg,1.0,0.885022,606.0,0.0,,,17.0,13.0,0.0,1.0,
1239,16,stim_snickers.jpg,stim_babyruth.jpg,1.0,0.651223,606.0,0.0,,,15.0,2.0,0.0,1.0,
1240,17,stim_fruitsnacks.jpg,stim_almondjoy.jpg,1.0,0.985206,606.0,0.0,,,5.0,1.0,0.0,1.0,
1241,18,stim_butterfinger.jpg,stim_snickers.jpg,2.0,0.651225,606.0,0.0,,,3.0,15.0,0.0,1.0,
1242,19,stim_reeses.jpg,stim_fruitsnacks.jpg,2.0,1.152193,606.0,0.0,,,13.0,5.0,0.0,1.0,
1243,20,stim_mmpeanut.jpg,stim_fruitsnacks.jpg,2.0,0.500926,606.0,0.0,,,10.0,5.0,0.0,1.0,
1244,21,stim_snickers.jpg,stim_mmchocolate.jpg,2.0,1.035295,606.0,0.0,,,15.0,9.0,0.0,1.0,
1245,22,stim_reeses.jpg,stim_snickers.jpg,2.0,0.584426,606.0,0.0,,,13.0,15.0,0.0,1.0,
1246,23,stim_kitkat.jpg,stim_skittles.jpg,1.0,1.085414,606.0,0.0,,,7.0,14.0,0.0,1.0,
1247,24,stim_whoppers.jpg,stim_fruitsnacks.jpg,2.0,0.985209,606.0,0.0,,,17.0,5.0,0.0,1.0,
