"","subj","trial","choice","roi","rt","upleftval","uprightval","downleftval","downrightval","fixdur","fixnum","revfixnum"
"1",1,1,0,3,6851.7,4,6,2,6,93.76,1,10
"2",1,1,0,1,6851.7,4,6,2,6,788.03,2,9
"3",1,1,0,3,6851.7,4,6,2,6,794,3,8
"4",1,1,0,2,6851.7,4,6,2,6,334.1,4,7
"5",1,1,0,4,6851.7,4,6,2,6,538.3,5,6
"6",1,1,0,3,6851.7,4,6,2,6,128.1,6,5
"7",1,1,0,1,6851.7,4,6,2,6,655.9,7,4
"8",1,1,0,3,6851.7,4,6,2,6,478,8,3
"9",1,1,0,2,6851.7,4,6,2,6,212,9,2
"10",1,1,0,4,6851.7,4,6,2,6,783.9,10,1
"11",1,2,0,3,5303.5,6,6,5,7,1.334,1,8
"12",1,2,0,1,5303.5,6,6,5,7,902.03,2,7
"13",1,2,0,3,5303.5,6,6,5,7,516,3,6
"14",1,2,0,4,5303.5,6,6,5,7,410,4,5
"15",1,2,0,2,5303.5,6,6,5,7,548.7,5,4
"16",1,2,0,1,5303.5,6,6,5,7,568.1,6,3
"17",1,2,0,2,5303.5,6,6,5,7,416,7,2
"18",1,2,0,4,5303.5,6,6,5,7,620.2,8,1
"19",1,3,1,1,6953.7,7,6,5,3,505.72,1,14
"20",1,3,1,3,6953.7,7,6,5,3,471.95,2,13
"21",1,3,1,2,6953.7,7,6,5,3,646.1,3,12
"22",1,3,1,4,6953.7,7,6,5,3,677.9,4,11
"23",1,3,1,2,6953.7,7,6,5,3,575.2,5,10
"24",1,3,1,3,6953.7,7,6,5,3,6.00000000000023,6,9
"25",1,3,1,1,6953.7,7,6,5,3,402,7,8
"26",1,3,1,3,6953.7,7,6,5,3,536,8,7
"27",1,3,1,1,6953.7,7,6,5,3,706.3,9,6
"28",1,3,1,2,6953.7,7,6,5,3,170,10,5
"29",1,3,1,4,6953.7,7,6,5,3,498,11,4
"30",1,3,1,1,6953.7,7,6,5,3,316.000000000001,12,3
"31",1,3,1,3,6953.7,7,6,5,3,676,13,2
"32",1,3,1,1,6953.7,7,6,5,3,62.1,14,1
"33",1,4,1,1,8105.8,4,6,7,5,2272.11,1,11
"34",1,4,1,3,8105.8,4,6,7,5,513.9,2,10
"35",1,4,1,4,8105.8,4,6,7,5,227.8,3,9
"36",1,4,1,1,8105.8,4,6,7,5,192,4,8
"37",1,4,1,2,8105.8,4,6,7,5,328.1,5,7
"38",1,4,1,4,8105.8,4,6,7,5,874.000000000001,6,6
"39",1,4,1,2,8105.8,4,6,7,5,525.9,7,5
"40",1,4,1,1,8105.8,4,6,7,5,263.3,8,4
"41",1,4,1,3,8105.8,4,6,7,5,682,9,3
"42",1,4,1,4,8105.8,4,6,7,5,160,10,2
"43",1,4,1,2,8105.8,4,6,7,5,313.9,11,1
"44",1,5,0,2,12091.7,6,6,5,5,373.9,1,17
"45",1,5,0,4,12091.7,6,6,5,5,286.03,2,16
"46",1,5,0,1,12091.7,6,6,5,5,679.82,3,15
"47",1,5,0,3,12091.7,6,6,5,5,642,4,14
"48",1,5,0,1,12091.7,6,6,5,5,677.9,5,13
"49",1,5,0,3,12091.7,6,6,5,5,307.9,6,12
"50",1,5,0,1,12091.7,6,6,5,5,2107.9,7,11
"51",1,5,0,3,12091.7,6,6,5,5,581.7,8,10
"52",1,5,0,1,12091.7,6,6,5,5,1660.1,9,9
"53",1,5,0,3,12091.7,6,6,5,5,446.5,10,8
"54",1,5,0,4,12091.7,6,6,5,5,166.2,11,7
"55",1,5,0,2,12091.7,6,6,5,5,607.899999999999,12,6
"56",1,5,0,4,12091.7,6,6,5,5,528,13,5
"57",1,5,0,3,12091.7,6,6,5,5,232.100000000001,14,4
"58",1,5,0,1,12091.7,6,6,5,5,12.0000000000005,15,3
"59",1,5,0,2,12091.7,6,6,5,5,568.000000000001,16,2
"60",1,5,0,4,12091.7,6,6,5,5,2.10000000000043,17,1
"61",1,6,1,1,8105.2,5,7,6,7,427.79,1,13
"62",1,6,1,3,8105.2,5,7,6,7,603.78,2,12
"63",1,6,1,1,8105.2,5,7,6,7,254.2,3,11
"64",1,6,1,3,8105.2,5,7,6,7,2,4,10
"65",1,6,1,1,8105.2,5,7,6,7,1232.7,5,9
"66",1,6,1,3,8105.2,5,7,6,7,568.1,6,8
"67",1,6,1,2,8105.2,5,7,6,7,466,7,7
"68",1,6,1,4,8105.2,5,7,6,7,693.9,8,6
"69",1,6,1,1,8105.2,5,7,6,7,362,9,5
"70",1,6,1,3,8105.2,5,7,6,7,9.90000000000002,10,4
"71",1,6,1,2,8105.2,5,7,6,7,529.9,11,3
"72",1,6,1,4,8105.2,5,7,6,7,715.9,12,2
"73",1,6,1,3,8105.2,5,7,6,7,67.8999999999998,13,1
"74",1,7,0,1,5546,6,5,4,5,634.01,1,11
"75",1,7,0,3,5546,6,5,4,5,307.94,2,10
"76",1,7,0,2,5546,6,5,4,5,348.1,3,9
"77",1,7,0,4,5546,6,5,4,5,646.4,4,8
"78",1,7,0,1,5546,6,5,4,5,462.1,5,7
"79",1,7,0,3,5546,6,5,4,5,560.1,6,6
"80",1,7,0,1,5546,6,5,4,5,126,7,5
"81",1,7,0,4,5546,6,5,4,5,362.2,8,4
"82",1,7,0,2,5546,6,5,4,5,604.4,9,3
"83",1,7,0,4,5546,6,5,4,5,952.100000000001,10,2
"84",1,7,0,2,5546,6,5,4,5,89.9000000000001,11,1
"85",1,8,1,1,3696,5,6,6,5,1003.94,1,7
"86",1,8,1,3,3696,5,6,6,5,525.9,2,6
"87",1,8,1,4,3696,5,6,6,5,351.9,3,5
"88",1,8,1,2,3696,5,6,6,5,537.9,4,4
"89",1,8,1,4,3696,5,6,6,5,403.9,5,3
"90",1,8,1,3,3696,5,6,6,5,230,6,2
"91",1,8,1,1,3696,5,6,6,5,195.8,7,1
"92",1,9,1,3,3789.6,6,6,7,4,15.776,1,7
"93",1,9,1,1,3789.6,6,6,7,4,1001.22,2,6
"94",1,9,1,3,3789.6,6,6,7,4,709.9,3,5
"95",1,9,1,1,3789.6,6,6,7,4,254,4,4
"96",1,9,1,2,3789.6,6,6,7,4,357.9,5,3
"97",1,9,1,4,3789.6,6,6,7,4,784,6,2
"98",1,9,1,3,3789.6,6,6,7,4,104.1,7,1
"99",1,10,1,1,3243.7,6,4,6,6,369.71,1,8
"100",1,10,1,3,3243.7,6,4,6,6,565.91,2,7
"101",1,10,1,2,3243.7,6,4,6,6,469.8,3,6
"102",1,10,1,4,3243.7,6,4,6,6,451.9,4,5
"103",1,10,1,3,3243.7,6,4,6,6,174,5,4
"104",1,10,1,1,3243.7,6,4,6,6,272.1,6,3
"105",1,10,1,3,3243.7,6,4,6,6,518,7,2
"106",1,10,1,1,3243.7,6,4,6,6,89.9999999999999,8,1
"107",1,11,0,1,5111.6,7,6,6,5,737.8,1,11
"108",1,11,0,3,5111.6,7,6,6,5,681.94,2,10
"109",1,11,0,2,5111.6,7,6,6,5,300.1,3,9
"110",1,11,0,1,5111.6,7,6,6,5,19.4000000000001,4,8
"111",1,11,0,2,5111.6,7,6,6,5,447.3,5,7
"112",1,11,0,4,5111.6,7,6,6,5,682,6,6
"113",1,11,0,2,5111.6,7,6,6,5,468.2,7,5
"114",1,11,0,3,5111.6,7,6,6,5,51.2000000000001,8,4
"115",1,11,0,1,5111.6,7,6,6,5,385.2,9,3
"116",1,11,0,3,5111.6,7,6,6,5,396,10,2
"117",1,11,0,4,5111.6,7,6,6,5,205.9,11,1
"118",1,12,1,1,5175.4,7,4,4,3,578.76,1,10
"119",1,12,1,3,5175.4,7,4,4,3,422.95,2,9
"120",1,12,1,4,5175.4,7,4,4,3,394,3,8
"121",1,12,1,2,5175.4,7,4,4,3,794.1,4,7
"122",1,12,1,4,5175.4,7,4,4,3,916.1,5,6
"123",1,12,1,1,5175.4,7,4,4,3,340.1,6,5
"124",1,12,1,3,5175.4,7,4,4,3,450,7,4
"125",1,12,1,1,5175.4,7,4,4,3,415.9,8,3
"126",1,12,1,3,5175.4,7,4,4,3,47.9000000000003,9,2
"127",1,12,1,2,5175.4,7,4,4,3,238.2,10,1
"128",1,13,0,1,9911.8,4,6,5,5,655.99,1,17
"129",1,13,0,3,9911.8,4,6,5,5,368.15,2,16
"130",1,13,0,1,9911.8,4,6,5,5,1612.1,3,15
"131",1,13,0,3,9911.8,4,6,5,5,494,4,14
"132",1,13,0,1,9911.8,4,6,5,5,676.1,5,13
"133",1,13,0,3,9911.8,4,6,5,5,349.9,6,12
"134",1,13,0,1,9911.8,4,6,5,5,221.9,7,11
"135",1,13,0,2,9911.8,4,6,5,5,682.1,8,10
"136",1,13,0,4,9911.8,4,6,5,5,1030,9,9
"137",1,13,0,3,9911.8,4,6,5,5,559.9,10,8
"138",1,13,0,1,9911.8,4,6,5,5,501.9,11,7
"139",1,13,0,2,9911.8,4,6,5,5,128.1,12,6
"140",1,13,0,4,9911.8,4,6,5,5,351.3,13,5
"141",1,13,0,3,9911.8,4,6,5,5,12.0000000000005,14,4
"142",1,13,0,1,9911.8,4,6,5,5,362,15,3
"143",1,13,0,2,9911.8,4,6,5,5,888.1,16,2
"144",1,13,0,1,9911.8,4,6,5,5,9.90000000000002,17,1
"145",1,14,1,1,5439.7,4,5,6,6,407.71,1,12
"146",1,14,1,3,5439.7,4,5,6,6,429.76,2,11
"147",1,14,1,1,5439.7,4,5,6,6,610,3,10
"148",1,14,1,3,5439.7,4,5,6,6,6.09999999999999,4,9
"149",1,14,1,1,5439.7,4,5,6,6,890.2,5,8
"150",1,14,1,3,5439.7,4,5,6,6,329.8,6,7
"151",1,14,1,2,5439.7,4,5,6,6,370,7,6
"152",1,14,1,4,5439.7,4,5,6,6,520.1,8,5
"153",1,14,1,2,5439.7,4,5,6,6,614,9,4
"154",1,14,1,1,5439.7,4,5,6,6,158.2,10,3
"155",1,14,1,3,5439.7,4,5,6,6,497.9,11,2
"156",1,14,1,1,5439.7,4,5,6,6,88.0000000000001,12,1
"157",1,15,0,1,4346,5,8,5,4,1109.84,1,7
"158",1,15,0,3,4346,5,8,5,4,12.1,2,6
"159",1,15,0,4,4346,5,8,5,4,326.4,3,5
"160",1,15,0,2,4346,5,8,5,4,697.8,4,4
"161",1,15,0,4,4346,5,8,5,4,578.1,5,3
"162",1,15,0,3,4346,5,8,5,4,219.9,6,2
"163",1,15,0,2,4346,5,8,5,4,209.8,7,1
"164",1,16,1,3,5495.9,5,5,6,4,8.06000000000001,1,9
"165",1,16,1,1,5495.9,5,5,6,4,964.03,2,8
"166",1,16,1,3,5495.9,5,5,6,4,342,3,7
"167",1,16,1,1,5495.9,5,5,6,4,237.9,4,6
"168",1,16,1,2,5495.9,5,5,6,4,395.9,5,5
"169",1,16,1,4,5495.9,5,5,6,4,718.1,6,4
"170",1,16,1,3,5495.9,5,5,6,4,544,7,3
"171",1,16,1,1,5495.9,5,5,6,4,318.000000000001,8,2
"172",1,16,1,3,5495.9,5,5,6,4,1257.9,9,1
"173",1,17,0,1,4128,2,5,8,6,1134.11,1,6
"174",1,17,0,3,4128,2,5,8,6,471.9,2,5
"175",1,17,0,2,4128,2,5,8,6,288,3,4
"176",1,17,0,4,4128,2,5,8,6,484.1,4,3
"177",1,17,0,2,4128,2,5,8,6,828.1,5,2
"178",1,17,0,4,4128,2,5,8,6,385.5,6,1
"179",1,18,1,3,6120.7,7,3,5,6,1.89999999999999,1,14
"180",1,18,1,1,6120.7,7,3,5,6,555.52,2,13
"181",1,18,1,3,6120.7,7,3,5,6,352.01,3,12
"182",1,18,1,1,6120.7,7,3,5,6,1315.8,4,11
"183",1,18,1,3,6120.7,7,3,5,6,650.6,5,10
"184",1,18,1,1,6120.7,7,3,5,6,232,6,9
"185",1,18,1,3,6120.7,7,3,5,6,4,7,8
"186",1,18,1,1,6120.7,7,3,5,6,87.8999999999999,8,7
"187",1,18,1,2,6120.7,7,3,5,6,382.1,9,6
"188",1,18,1,4,6120.7,7,3,5,6,491.2,10,5
"189",1,18,1,2,6120.7,7,3,5,6,194.599999999999,11,4
"190",1,18,1,1,6120.7,7,3,5,6,332,12,3
"191",1,18,1,3,6120.7,7,3,5,6,607.900000000001,13,2
"192",1,18,1,4,6120.7,7,3,5,6,361.400000000001,14,1
"193",1,19,1,1,6644.7,7,6,6,5,565.83,1,11
"194",1,19,1,3,6644.7,7,6,6,5,581.73,2,10
"195",1,19,1,1,6644.7,7,6,6,5,230,3,9
"196",1,19,1,2,6644.7,7,6,6,5,356,4,8
"197",1,19,1,4,6644.7,7,6,6,5,642,5,7
"198",1,19,1,2,6644.7,7,6,6,5,424.2,6,6
"199",1,19,1,1,6644.7,7,6,6,5,242,7,5
"200",1,19,1,3,6644.7,7,6,6,5,779.8,8,4
"201",1,19,1,1,6644.7,7,6,6,5,812,9,3
"202",1,19,1,3,6644.7,7,6,6,5,377.7,10,2
"203",1,19,1,4,6644.7,7,6,6,5,1127.4,11,1
"204",1,20,0,1,5761.6,5,4,3,7,583.81,1,7
"205",1,20,0,3,5761.6,5,4,3,7,653.93,2,6
"206",1,20,0,4,5761.6,5,4,3,7,640.1,3,5
"207",1,20,0,2,5761.6,5,4,3,7,630.1,4,4
"208",1,20,0,4,5761.6,5,4,3,7,1354.9,5,3
"209",1,20,0,3,5761.6,5,4,3,7,584.1,6,2
"210",1,20,0,1,5761.6,5,4,3,7,161.9,7,1
"211",1,21,0,1,7228.4,3,2,6,3,624.4,1,8
"212",1,21,0,3,7228.4,3,2,6,3,620.24,2,7
"213",1,21,0,4,7228.4,3,2,6,3,471.9,3,6
"214",1,21,0,2,7228.4,3,2,6,3,658.1,4,5
"215",1,21,0,4,7228.4,3,2,6,3,1736.1,5,4
"216",1,21,0,3,7228.4,3,2,6,3,204,6,3
"217",1,21,0,4,7228.4,3,2,6,3,365.9,7,2
"218",1,21,0,3,7228.4,3,2,6,3,1872.1,8,1
"219",1,22,1,1,2782.6,5,3,6,3,559.81,1,6
"220",1,22,1,3,2782.6,5,3,6,3,594.16,2,5
"221",1,22,1,2,2782.6,5,3,6,3,388,3,4
"222",1,22,1,4,2782.6,5,3,6,3,482,4,3
"223",1,22,1,3,2782.6,5,3,6,3,304,5,2
"224",1,22,1,1,2782.6,5,3,6,3,171.5,6,1
"225",1,23,1,1,3139.2,5,2,5,6,409.76,1,6
"226",1,23,1,3,3139.2,5,2,5,6,578.15,2,5
"227",1,23,1,1,3139.2,5,2,5,6,386,3,4
"228",1,23,1,2,3139.2,5,2,5,6,377.9,4,3
"229",1,23,1,4,3139.2,5,2,5,6,760.1,5,2
"230",1,23,1,2,3139.2,5,2,5,6,367.5,6,1
"231",1,24,1,1,2612.6,6,1,5,5,504.847,1,6
"232",1,24,1,3,2612.6,6,1,5,5,403.97,2,5
"233",1,24,1,4,2612.6,6,1,5,5,434.22,3,4
"234",1,24,1,2,2612.6,6,1,5,5,652,4,3
"235",1,24,1,4,2612.6,6,1,5,5,144,5,2
"236",1,24,1,1,2612.6,6,1,5,5,93.3999999999999,6,1
"237",1,25,0,1,4522.6,6,7,4,5,582.06,1,10
"238",1,25,0,3,4522.6,6,7,4,5,433.87,2,9
"239",1,25,0,1,4522.6,6,7,4,5,135.7,3,8
"240",1,25,0,2,4522.6,6,7,4,5,318,4,7
"241",1,25,0,4,4522.6,6,7,4,5,422.4,5,6
"242",1,25,0,2,4522.6,6,7,4,5,431.9,6,5
"243",1,25,0,1,4522.6,6,7,4,5,416.4,7,4
"244",1,25,0,3,4522.6,6,7,4,5,814,8,3
"245",1,25,0,4,4522.6,6,7,4,5,143.6,9,2
"246",1,25,0,2,4522.6,6,7,4,5,95.3999999999997,10,1
"247",1,26,1,1,5003.4,7,5,2,3,591.98,1,12
"248",1,26,1,3,5003.4,7,5,2,3,87.53,2,11
"249",1,26,1,1,5003.4,7,5,2,3,807.8,3,10
"250",1,26,1,3,5003.4,7,5,2,3,142,4,9
"251",1,26,1,4,5003.4,7,5,2,3,618.1,5,8
"252",1,26,1,2,5003.4,7,5,2,3,430.2,6,7
"253",1,26,1,1,5003.4,7,5,2,3,441.3,7,6
"254",1,26,1,3,5003.4,7,5,2,3,382,8,5
"255",1,26,1,1,5003.4,7,5,2,3,114.1,9,4
"256",1,26,1,3,5003.4,7,5,2,3,65.9000000000001,10,3
"257",1,26,1,1,5003.4,7,5,2,3,62.1999999999998,11,2
"258",1,26,1,3,5003.4,7,5,2,3,164.000000000001,12,1
"259",1,27,0,1,2769.4,3,7,6,5,946.02,1,5
"260",1,27,0,3,2769.4,3,7,6,5,526.1,2,4
"261",1,27,0,4,2769.4,3,7,6,5,274,3,3
"262",1,27,0,2,2769.4,3,7,6,5,412,4,2
"263",1,27,0,4,2769.4,3,7,6,5,195.2,5,1
"264",1,28,0,1,12659.4,3,2,6,6,907.88,1,18
"265",1,28,0,3,12659.4,3,2,6,6,512.1,2,17
"266",1,28,0,1,12659.4,3,2,6,6,288.2,3,16
"267",1,28,0,3,12659.4,3,2,6,6,34,4,15
"268",1,28,0,2,12659.4,3,2,6,6,520,5,14
"269",1,28,0,4,12659.4,3,2,6,6,964.1,6,13
"270",1,28,0,3,12659.4,3,2,6,6,219.6,7,12
"271",1,28,0,1,12659.4,3,2,6,6,738,8,11
"272",1,28,0,3,12659.4,3,2,6,6,703.9,9,10
"273",1,28,0,1,12659.4,3,2,6,6,654,10,9
"274",1,28,0,2,12659.4,3,2,6,6,743.5,11,8
"275",1,28,0,4,12659.4,3,2,6,6,2117.9,12,7
"276",1,28,0,3,12659.4,3,2,6,6,615.400000000001,13,6
"277",1,28,0,1,12659.4,3,2,6,6,520.099999999999,14,5
"278",1,28,0,2,12659.4,3,2,6,6,496,15,4
"279",1,28,0,1,12659.4,3,2,6,6,337.999999999999,16,3
"280",1,28,0,3,12659.4,3,2,6,6,1129.9,17,2
"281",1,28,0,1,12659.4,3,2,6,6,145.5,18,1
"282",1,29,0,3,12314.7,4,3,4,5,33.955,1,18
"283",1,29,0,1,12314.7,4,3,4,5,2161.73,2,17
"284",1,29,0,3,12314.7,4,3,4,5,25.9,3,16
"285",1,29,0,1,12314.7,4,3,4,5,456.1,4,15
"286",1,29,0,3,12314.7,4,3,4,5,1510.2,5,14
"287",1,29,0,2,12314.7,4,3,4,5,1325.8,6,13
"288",1,29,0,4,12314.7,4,3,4,5,803.900000000001,7,12
"289",1,29,0,3,12314.7,4,3,4,5,3.89999999999979,8,11
"290",1,29,0,4,12314.7,4,3,4,5,601.900000000001,9,10
"291",1,29,0,2,12314.7,4,3,4,5,298.1,10,9
"292",1,29,0,1,12314.7,4,3,4,5,87.9999999999992,11,8
"293",1,29,0,3,12314.7,4,3,4,5,717.9,12,7
"294",1,29,0,1,12314.7,4,3,4,5,284.1,13,6
"295",1,29,0,2,12314.7,4,3,4,5,368,14,5
"296",1,29,0,3,12314.7,4,3,4,5,69.9000000000005,15,4
"297",1,29,0,4,12314.7,4,3,4,5,724.2,16,3
"298",1,29,0,1,12314.7,4,3,4,5,1498,17,2
"299",1,29,0,3,12314.7,4,3,4,5,4.30000000000064,18,1
"300",1,30,1,1,5148.8,6,4,6,5,447.98,1,8
"301",1,30,1,3,5148.8,6,4,6,5,1495.93,2,7
"302",1,30,1,1,5148.8,6,4,6,5,259.9,3,6
"303",1,30,1,2,5148.8,6,4,6,5,320.1,4,5
"304",1,30,1,4,5148.8,6,4,6,5,495.2,5,4
"305",1,30,1,2,5148.8,6,4,6,5,881.800000000001,6,3
"306",1,30,1,1,5148.8,6,4,6,5,367.9,7,2
"307",1,30,1,3,5148.8,6,4,6,5,8.09999999999977,8,1
"308",1,31,0,1,4205.9,5,4,5,6,789.86,1,7
"309",1,31,0,3,4205.9,5,4,5,6,498,2,6
"310",1,31,0,4,4205.9,5,4,5,6,29.9,3,5
"311",1,31,0,2,4205.9,5,4,5,6,453.9,4,4
"312",1,31,0,1,4205.9,5,4,5,6,266,5,3
"313",1,31,0,3,4205.9,5,4,5,6,654.1,6,2
"314",1,31,0,4,4205.9,5,4,5,6,121.2,7,1
"315",1,32,0,1,3337.4,7,6,2,6,449.82,1,6
"316",1,32,0,3,3337.4,7,6,2,6,444.15,2,5
"317",1,32,0,2,3337.4,7,6,2,6,296,3,4
"318",1,32,0,4,3337.4,7,6,2,6,689.9,4,3
"319",1,32,0,2,3337.4,7,6,2,6,602,5,2
"320",1,32,0,4,3337.4,7,6,2,6,320.3,6,1
"321",1,33,1,1,5299.8,4,7,7,5,471.86,1,9
"322",1,33,1,3,5299.8,4,7,7,5,466.15,2,8
"323",1,33,1,4,5299.8,4,7,7,5,290.2,3,7
"324",1,33,1,2,5299.8,4,7,7,5,478,4,6
"325",1,33,1,1,5299.8,4,7,7,5,284,5,5
"326",1,33,1,3,5299.8,4,7,7,5,1406,6,4
"327",1,33,1,1,5299.8,4,7,7,5,205.8,7,3
"328",1,33,1,2,5299.8,4,7,7,5,474.2,8,2
"329",1,33,1,4,5299.8,4,7,7,5,837.000000000001,9,1
"330",1,34,1,3,2948.8,6,3,7,4,3.86,1,7
"331",1,34,1,1,2948.8,6,3,7,4,413.96,2,6
"332",1,34,1,3,2948.8,6,3,7,4,665.72,3,5
"333",1,34,1,1,2948.8,6,3,7,4,457.5,4,4
"334",1,34,1,2,2948.8,6,3,7,4,400.2,5,3
"335",1,34,1,4,2948.8,6,3,7,4,394.2,6,2
"336",1,34,1,2,2948.8,6,3,7,4,313.3,7,1
"337",1,35,1,1,3551.4,6,4,3,4,505.91,1,7
"338",1,35,1,3,3551.4,6,4,3,4,420.89,2,6
"339",1,35,1,1,3551.4,6,4,3,4,335.8,3,5
"340",1,35,1,2,3551.4,6,4,3,4,496.8,4,4
"341",1,35,1,4,3551.4,6,4,3,4,660,5,3
"342",1,35,1,2,3551.4,6,4,3,4,473.9,6,2
"343",1,35,1,1,3551.4,6,4,3,4,95.0000000000002,7,1
"344",1,36,1,1,6591.3,4,6,5,4,373.9,1,11
"345",1,36,1,3,6591.3,4,6,5,4,352.02,2,10
"346",1,36,1,1,6591.3,4,6,5,4,557.8,3,9
"347",1,36,1,3,6591.3,4,6,5,4,840,4,8
"348",1,36,1,2,6591.3,4,6,5,4,540.100000000001,5,7
"349",1,36,1,3,6591.3,4,6,5,4,4.30000000000064,6,6
"350",1,36,1,2,6591.3,4,6,5,4,526.5,7,5
"351",1,36,1,4,6591.3,4,6,5,4,512,8,4
"352",1,36,1,1,6591.3,4,6,5,4,298.3,9,3
"353",1,36,1,3,6591.3,4,6,5,4,314.4,10,2
"354",1,36,1,1,6591.3,4,6,5,4,114.800000000001,11,1
"355",1,37,1,3,6012.3,7,7,5,4,15.718,1,12
"356",1,37,1,1,6012.3,7,7,5,4,381.82,2,11
"357",1,37,1,3,6012.3,7,7,5,4,570.02,3,10
"358",1,37,1,1,6012.3,7,7,5,4,32.1,4,9
"359",1,37,1,2,6012.3,7,7,5,4,407.9,5,8
"360",1,37,1,4,6012.3,7,7,5,4,478,6,7
"361",1,37,1,2,6012.3,7,7,5,4,354.1,7,6
"362",1,37,1,1,6012.3,7,7,5,4,444.7,8,5
"363",1,37,1,2,6012.3,7,7,5,4,635.9,9,4
"364",1,37,1,3,6012.3,7,7,5,4,543.7,10,3
"365",1,37,1,1,6012.3,7,7,5,4,1189.2,11,2
"366",1,37,1,3,6012.3,7,7,5,4,7.29999999999986,12,1
"367",1,38,0,1,3199,7,4,4,7,419.78,1,5
"368",1,38,0,3,3199,7,4,4,7,515.98,2,4
"369",1,38,0,1,3199,7,4,4,7,611.9,3,3
"370",1,38,0,2,3199,7,4,4,7,214,4,2
"371",1,38,0,4,3199,7,4,4,7,1061,5,1
"372",1,39,1,3,2821.2,7,7,4,6,21.685,1,7
"373",1,39,1,1,2821.2,7,7,4,6,415.86,2,6
"374",1,39,1,3,2821.2,7,7,4,6,539.95,3,5
"375",1,39,1,1,2821.2,7,7,4,6,564,4,4
"376",1,39,1,2,2821.2,7,7,4,6,259.9,5,3
"377",1,39,1,4,2821.2,7,7,4,6,476.2,6,2
"378",1,39,1,3,2821.2,7,7,4,6,215.9,7,1
"379",1,40,0,1,7896.3,6,7,5,6,381.96,1,14
"380",1,40,0,3,7896.3,6,7,5,6,387.11,2,13
"381",1,40,0,1,7896.3,6,7,5,6,10,3,12
"382",1,40,0,2,7896.3,6,7,5,6,425,4,11
"383",1,40,0,4,7896.3,6,7,5,6,315.2,5,10
"384",1,40,0,3,7896.3,6,7,5,6,430.1,6,9
"385",1,40,0,1,7896.3,6,7,5,6,840.9,7,8
"386",1,40,0,3,7896.3,6,7,5,6,450.200000000001,8,7
"387",1,40,0,1,7896.3,6,7,5,6,289.899999999999,9,6
"388",1,40,0,2,7896.3,6,7,5,6,313,10,5
"389",1,40,0,4,7896.3,6,7,5,6,164.000000000001,11,4
"390",1,40,0,2,7896.3,6,7,5,6,206,12,3
"391",1,40,0,4,7896.3,6,7,5,6,1112.1,13,2
"392",1,40,0,2,7896.3,6,7,5,6,102.9,14,1
"393",1,41,0,1,2858.5,3,4,4,7,693.74,1,5
"394",1,41,0,3,2858.5,3,4,4,7,417.84,2,4
"395",1,41,0,4,2858.5,3,4,4,7,252,3,3
"396",1,41,0,2,2858.5,3,4,4,7,426.6,4,2
"397",1,41,0,4,2858.5,3,4,4,7,740.9,5,1
"398",1,42,1,1,3655.2,5,5,6,3,409.85,1,7
"399",1,42,1,3,3655.2,5,5,6,3,500.33,2,6
"400",1,42,1,2,3655.2,5,5,6,3,390.1,3,5
"401",1,42,1,4,3655.2,5,5,6,3,674.2,4,4
"402",1,42,1,1,3655.2,5,5,6,3,512,5,3
"403",1,42,1,3,3655.2,5,5,6,3,763.9,6,2
"404",1,42,1,1,3655.2,5,5,6,3,74.9999999999997,7,1
"405",1,43,1,1,4082.7,4,6,6,5,641.87,1,8
"406",1,43,1,3,4082.7,4,6,6,5,560.01,2,7
"407",1,43,1,1,4082.7,4,6,6,5,676.1,3,6
"408",1,43,1,2,4082.7,4,6,6,5,282.2,4,5
"409",1,43,1,4,4082.7,4,6,6,5,414.1,5,4
"410",1,43,1,2,4082.7,4,6,6,5,415.9,6,3
"411",1,43,1,3,4082.7,4,6,6,5,152,7,2
"412",1,43,1,1,4082.7,4,6,6,5,559.8,8,1
"413",1,44,1,3,2870.1,5,5,6,3,19.969,1,5
"414",1,44,1,1,2870.1,5,5,6,3,411.89,2,4
"415",1,44,1,3,2870.1,5,5,6,3,547.96,3,3
"416",1,44,1,4,2870.1,5,5,6,3,1.40000000000029,4,2
"417",1,44,1,3,2870.1,5,5,6,3,226.5,5,1
"418",1,45,1,3,1926.9,6,3,7,6,2.34999999999999,1,5
"419",1,45,1,1,1926.9,6,3,7,6,612.11,2,4
"420",1,45,1,3,1926.9,6,3,7,6,353.47,3,3
"421",1,45,1,2,1926.9,6,3,7,6,226,4,2
"422",1,45,1,4,1926.9,6,3,7,6,323,5,1
"423",1,46,0,3,7790.1,5,6,5,6,13.73,1,14
"424",1,46,0,1,7790.1,5,6,5,6,504.16,2,13
"425",1,46,0,3,7790.1,5,6,5,6,467.84,3,12
"426",1,46,0,1,7790.1,5,6,5,6,440.1,4,11
"427",1,46,0,3,7790.1,5,6,5,6,296,5,10
"428",1,46,0,1,7790.1,5,6,5,6,198,6,9
"429",1,46,0,3,7790.1,5,6,5,6,1178.2,7,8
"430",1,46,0,1,7790.1,5,6,5,6,470.1,8,7
"431",1,46,0,2,7790.1,5,6,5,6,736.000000000001,9,6
"432",1,46,0,4,7790.1,5,6,5,6,700,10,5
"433",1,46,0,2,7790.1,5,6,5,6,253.900000000001,11,4
"434",1,46,0,1,7790.1,5,6,5,6,379.9,12,3
"435",1,46,0,3,7790.1,5,6,5,6,314.1,13,2
"436",1,46,0,4,7790.1,5,6,5,6,232.699999999999,14,1
"437",1,47,0,1,9058,3,6,6,7,401.81,1,13
"438",1,47,0,3,9058,3,6,6,7,594.02,2,12
"439",1,47,0,2,9058,3,6,6,7,396.9,3,11
"440",1,47,0,4,9058,3,6,6,7,92.0999999999999,4,10
"441",1,47,0,1,9058,3,6,6,7,394,5,9
"442",1,47,0,3,9058,3,6,6,7,380,6,8
"443",1,47,0,1,9058,3,6,6,7,631.9,7,7
"444",1,47,0,3,9058,3,6,6,7,646.100000000001,8,6
"445",1,47,0,2,9058,3,6,6,7,99.8999999999999,9,5
"446",1,47,0,4,9058,3,6,6,7,242,10,4
"447",1,47,0,3,9058,3,6,6,7,457.9,11,3
"448",1,47,0,1,9058,3,6,6,7,1.80000000000025,12,2
"449",1,47,0,3,9058,3,6,6,7,228,13,1
"450",1,48,0,3,5983,5,7,7,7,21.57,1,12
"451",1,48,0,1,5983,5,7,7,7,719.78,2,11
"452",1,48,0,3,5983,5,7,7,7,516.1,3,10
"453",1,48,0,4,5983,5,7,7,7,75.9000000000001,4,9
"454",1,48,0,2,5983,5,7,7,7,311.9,5,8
"455",1,48,0,4,5983,5,7,7,7,169.9,6,7
"456",1,48,0,2,5983,5,7,7,7,488,7,6
"457",1,48,0,1,5983,5,7,7,7,206,8,5
"458",1,48,0,3,5983,5,7,7,7,148,9,4
"459",1,48,0,1,5983,5,7,7,7,568.1,10,3
"460",1,48,0,4,5983,5,7,7,7,484.1,11,2
"461",1,48,0,2,5983,5,7,7,7,1358.8,12,1
"462",1,49,0,1,4431.9,7,6,7,5,333.97,1,12
"463",1,49,0,3,4431.9,7,6,7,5,477.96,2,11
"464",1,49,0,4,4431.9,7,6,7,5,172,3,10
"465",1,49,0,3,4431.9,7,6,7,5,676,4,9
"466",1,49,0,1,4431.9,7,6,7,5,5.79999999999981,5,8
"467",1,49,0,2,4431.9,7,6,7,5,246.1,6,7
"468",1,49,0,4,4431.9,7,6,7,5,460.1,7,6
"469",1,49,0,3,4431.9,7,6,7,5,20.2,8,5
"470",1,49,0,1,4431.9,7,6,7,5,286.1,9,4
"471",1,49,0,3,4431.9,7,6,7,5,440.1,10,3
"472",1,49,0,1,4431.9,7,6,7,5,311.9,11,2
"473",1,49,0,2,4431.9,7,6,7,5,178.8,12,1
"474",1,50,1,1,7165.1,6,7,7,2,963.82,1,12
"475",1,50,1,3,7165.1,6,7,7,2,340,2,11
"476",1,50,1,1,7165.1,6,7,7,2,31.9,3,10
"477",1,50,1,2,7165.1,6,7,7,2,288,4,9
"478",1,50,1,4,7165.1,6,7,7,2,1786.1,5,8
"479",1,50,1,2,7165.1,6,7,7,2,277.900000000001,6,7
"480",1,50,1,1,7165.1,6,7,7,2,1272,7,6
"481",1,50,1,3,7165.1,6,7,7,2,273.8,8,5
"482",1,50,1,1,7165.1,6,7,7,2,1.79999999999936,9,4
"483",1,50,1,3,7165.1,6,7,7,2,5.90000000000046,10,3
"484",1,50,1,1,7165.1,6,7,7,2,562.2,11,2
"485",1,50,1,3,7165.1,6,7,7,2,514,12,1
"486",1,51,0,1,8350.5,4,5,5,6,7.88999999999995,1,12
"487",1,51,0,3,8350.5,4,5,5,6,555.43,2,11
"488",1,51,0,2,8350.5,4,5,5,6,386.1,3,10
"489",1,51,0,4,8350.5,4,5,5,6,333.9,4,9
"490",1,51,0,1,8350.5,4,5,5,6,490,5,8
"491",1,51,0,3,8350.5,4,5,5,6,680.1,6,7
"492",1,51,0,1,8350.5,4,5,5,6,1092.1,7,6
"493",1,51,0,2,8350.5,4,5,5,6,338.2,8,5
"494",1,51,0,4,8350.5,4,5,5,6,370,9,4
"495",1,51,0,2,8350.5,4,5,5,6,582,10,3
"496",1,51,0,4,8350.5,4,5,5,6,1576,11,2
"497",1,51,0,2,8350.5,4,5,5,6,506.4,12,1
"498",1,52,0,1,4879.3,7,4,4,7,401.77,1,8
"499",1,52,0,3,4879.3,7,4,4,7,381.91,2,7
"500",1,52,0,1,4879.3,7,4,4,7,345.9,3,6
"501",1,52,0,3,4879.3,7,4,4,7,216,4,5
"502",1,52,0,1,4879.3,7,4,4,7,60.1,5,4
"503",1,52,0,2,4879.3,7,4,4,7,171.9,6,3
"504",1,52,0,4,4879.3,7,4,4,7,302,7,2
"505",1,52,0,3,4879.3,7,4,4,7,502.4,8,1
"506",1,53,1,1,5600.8,6,3,7,5,451.97,1,7
"507",1,53,1,3,5600.8,6,3,7,5,607.33,2,6
"508",1,53,1,2,5600.8,6,3,7,5,538.9,3,5
"509",1,53,1,4,5600.8,6,3,7,5,422,4,4
"510",1,53,1,3,5600.8,6,3,7,5,196,5,3
"511",1,53,1,1,5600.8,6,3,7,5,7.79999999999959,6,2
"512",1,53,1,3,5600.8,6,3,7,5,805.899999999999,7,1
"513",1,54,0,1,6718.9,5,5,5,6,2645.99,1,10
"514",1,54,0,3,6718.9,5,5,5,6,636.4,2,9
"515",1,54,0,1,6718.9,5,5,5,6,158.2,3,8
"516",1,54,0,2,6718.9,5,5,5,6,290.1,4,7
"517",1,54,0,4,6718.9,5,5,5,6,537.9,5,6
"518",1,54,0,2,6718.9,5,5,5,6,515.9,6,5
"519",1,54,0,4,6718.9,5,5,5,6,138,7,4
"520",1,54,0,2,6718.9,5,5,5,6,441.9,8,3
"521",1,54,0,1,6718.9,5,5,5,6,355.899999999999,9,2
"522",1,54,0,3,6718.9,5,5,5,6,354.6,10,1
"523",1,55,1,1,4645,3,5,6,6,511.69,1,8
"524",1,55,1,3,4645,3,5,6,6,385.78,2,7
"525",1,55,1,1,4645,3,5,6,6,67.9999999999998,3,6
"526",1,55,1,2,4645,3,5,6,6,330.1,4,5
"527",1,55,1,4,4645,3,5,6,6,824.1,5,4
"528",1,55,1,2,4645,3,5,6,6,525.9,6,3
"529",1,55,1,1,4645,3,5,6,6,68.4,7,2
"530",1,55,1,3,4645,3,5,6,6,943.9,8,1
"531",1,56,1,1,2315.7,7,7,4,3,759.89,1,2
"532",1,56,1,3,2315.7,7,7,4,3,165.89,2,1
"533",1,57,1,1,2665.1,6,3,4,7,273.86,1,9
"534",1,57,1,3,2665.1,6,3,4,7,404.12,2,8
"535",1,57,1,1,2665.1,6,3,4,7,51.9799999999999,3,7
"536",1,57,1,2,2665.1,6,3,4,7,257.6,4,6
"537",1,57,1,4,2665.1,6,3,4,7,508,5,5
"538",1,57,1,3,2665.1,6,3,4,7,285.9,6,4
"539",1,57,1,1,2665.1,6,3,4,7,2.00000000000022,7,3
"540",1,57,1,3,2665.1,6,3,4,7,8.00000000000001,8,2
"541",1,57,1,1,2665.1,6,3,4,7,1.90000000000001,9,1
"542",1,58,0,1,4913.2,1,6,5,7,733.86,1,8
"543",1,58,0,3,4913.2,1,6,5,7,467.93,2,7
"544",1,58,0,1,4913.2,1,6,5,7,2,3,6
"545",1,58,0,3,4913.2,1,6,5,7,76.0000000000001,4,5
"546",1,58,0,1,4913.2,1,6,5,7,138.1,5,4
"547",1,58,0,2,4913.2,1,6,5,7,396,6,3
"548",1,58,0,4,4913.2,1,6,5,7,1334,7,2
"549",1,58,0,2,4913.2,1,6,5,7,886.299999999999,8,1
"550",1,59,0,1,9642.6,6,3,6,7,1457.89,1,13
"551",1,59,0,3,9642.6,6,3,6,7,598,2,12
"552",1,59,0,4,9642.6,6,3,6,7,1858.1,3,11
"553",1,59,0,2,9642.6,6,3,6,7,759.9,4,10
"554",1,59,0,1,9642.6,6,3,6,7,238.2,5,9
"555",1,59,0,3,9642.6,6,3,6,7,685.499999999999,6,8
"556",1,59,0,1,9642.6,6,3,6,7,230,7,7
"557",1,59,0,4,9642.6,6,3,6,7,2044.6,8,6
"558",1,59,0,3,9642.6,6,3,6,7,21.9000000000005,9,5
"559",1,59,0,4,9642.6,6,3,6,7,83.8999999999999,10,4
"560",1,59,0,3,9642.6,6,3,6,7,302.100000000001,11,3
"561",1,59,0,1,9642.6,6,3,6,7,178.2,12,2
"562",1,59,0,2,9642.6,6,3,6,7,52.6,13,1
"563",1,60,1,1,8267.9,6,6,6,5,1416.98,1,10
"564",1,60,1,3,8267.9,6,6,6,5,464.1,2,9
"565",1,60,1,2,8267.9,6,6,6,5,803.199999999999,3,8
"566",1,60,1,3,8267.9,6,6,6,5,43.8999999999998,4,7
"567",1,60,1,4,8267.9,6,6,6,5,10.0000000000007,5,6
"568",1,60,1,3,8267.9,6,6,6,5,1.99999999999978,6,5
"569",1,60,1,4,8267.9,6,6,6,5,1558,7,4
"570",1,60,1,3,8267.9,6,6,6,5,427.9,8,3
"571",1,60,1,1,8267.9,6,6,6,5,657.9,9,2
"572",1,60,1,3,8267.9,6,6,6,5,25.9999999999998,10,1
"573",1,61,0,3,3357.5,6,4,5,4,19.83,1,7
"574",1,61,0,1,3357.5,6,4,5,4,368.08,2,6
"575",1,61,0,3,3357.5,6,4,5,4,594.11,3,5
"576",1,61,0,1,3357.5,6,4,5,4,136.8,4,4
"577",1,61,0,2,3357.5,6,4,5,4,280,5,3
"578",1,61,0,4,3357.5,6,4,5,4,600,6,2
"579",1,61,0,2,3357.5,6,4,5,4,576.3,7,1
"580",1,62,1,1,3622.5,6,2,6,5,1076.79,1,3
"581",1,62,1,3,3622.5,6,2,6,5,582.1,2,2
"582",1,62,1,2,3622.5,6,2,6,5,478,3,1
"583",1,63,0,1,3438.2,3,7,3,3,1051.89,1,5
"584",1,63,0,3,3438.2,3,7,3,3,552,2,4
"585",1,63,0,1,3438.2,3,7,3,3,520.1,3,3
"586",1,63,0,2,3438.2,3,7,3,3,358,4,2
"587",1,63,0,4,3438.2,3,7,3,3,632.2,5,1
"588",1,64,0,1,3014.2,7,7,6,5,483.84,1,16
"589",1,64,0,3,3014.2,7,7,6,5,336.11,2,15
"590",1,64,0,1,3014.2,7,7,6,5,1.81999999999993,3,14
"591",1,64,0,3,3014.2,7,7,6,5,4.07000000000002,4,13
"592",1,64,0,1,3014.2,7,7,6,5,2,5,12
"593",1,64,0,3,3014.2,7,7,6,5,4,6,11
"594",1,64,0,1,3014.2,7,7,6,5,67.9000000000001,7,10
"595",1,64,0,3,3014.2,7,7,6,5,1.90000000000001,8,9
"596",1,64,0,1,3014.2,7,7,6,5,84.0999999999998,9,8
"597",1,64,0,3,3014.2,7,7,6,5,1.90000000000001,10,7
"598",1,64,0,1,3014.2,7,7,6,5,14.1,11,6
"599",1,64,0,3,3014.2,7,7,6,5,74.0000000000001,12,5
"600",1,64,0,1,3014.2,7,7,6,5,466.1,13,4
"601",1,64,0,2,3014.2,7,7,6,5,322,14,3
"602",1,64,0,4,3014.2,7,7,6,5,392,15,2
"603",1,64,0,2,3014.2,7,7,6,5,392.1,16,1
"604",1,65,1,1,4846.3,4,7,7,4,281.82,1,10
"605",1,65,1,2,4846.3,4,7,7,4,285.99,2,9
"606",1,65,1,4,4846.3,4,7,7,4,428.06,3,8
"607",1,65,1,3,4846.3,4,7,7,4,427.9,4,7
"608",1,65,1,1,4846.3,4,7,7,4,970,5,6
"609",1,65,1,2,4846.3,4,7,7,4,409.9,6,5
"610",1,65,1,4,4846.3,4,7,7,4,562.1,7,4
"611",1,65,1,2,4846.3,4,7,7,4,430.2,8,3
"612",1,65,1,3,4846.3,4,7,7,4,409.999999999999,9,2
"613",1,65,1,1,4846.3,4,7,7,4,10.3,10,1
"614",1,66,0,1,7017.5,5,7,6,6,517.96,1,10
"615",1,66,0,3,7017.5,5,7,6,6,421.86,2,9
"616",1,66,0,1,7017.5,5,7,6,6,8.29999999999975,3,8
"617",1,66,0,3,7017.5,5,7,6,6,278.1,4,7
"618",1,66,0,1,7017.5,5,7,6,6,678.1,5,6
"619",1,66,0,2,7017.5,5,7,6,6,350.2,6,5
"620",1,66,0,4,7017.5,5,7,6,6,600.1,7,4
"621",1,66,0,2,7017.5,5,7,6,6,763.9,8,3
"622",1,66,0,4,7017.5,5,7,6,6,590,9,2
"623",1,66,0,2,7017.5,5,7,6,6,72.0999999999998,10,1
"624",1,67,1,1,8186.5,7,6,6,7,109.99,1,11
"625",1,67,1,3,8186.5,7,6,6,7,6.01000000000002,2,10
"626",1,67,1,1,8186.5,7,6,6,7,521.8,3,9
"627",1,67,1,3,8186.5,7,6,6,7,365.9,4,8
"628",1,67,1,1,8186.5,7,6,6,7,1254.2,5,7
"629",1,67,1,3,8186.5,7,6,6,7,5.90000000000046,6,6
"630",1,67,1,1,8186.5,7,6,6,7,758.1,7,5
"631",1,67,1,3,8186.5,7,6,6,7,380.3,8,4
"632",1,67,1,2,8186.5,7,6,6,7,334,9,3
"633",1,67,1,1,8186.5,7,6,6,7,557.9,10,2
"634",1,67,1,2,8186.5,7,6,6,7,174.300000000001,11,1
"635",1,68,0,1,4078.8,3,6,3,7,659.85,1,7
"636",1,68,0,3,4078.8,3,6,3,7,361.95,2,6
"637",1,68,0,2,4078.8,3,6,3,7,1100,3,5
"638",1,68,0,4,4078.8,3,6,3,7,224.1,4,4
"639",1,68,0,2,4078.8,3,6,3,7,303.7,5,3
"640",1,68,0,1,4078.8,3,6,3,7,7.8999999999998,6,2
"641",1,68,0,3,4078.8,3,6,3,7,206,7,1
"642",1,69,0,1,2886.1,1,6,7,6,537.9,1,7
"643",1,69,0,3,2886.1,1,6,7,6,374.02,2,6
"644",1,69,0,1,2886.1,1,6,7,6,248.1,3,5
"645",1,69,0,3,2886.1,1,6,7,6,280,4,4
"646",1,69,0,2,2886.1,1,6,7,6,376.8,5,3
"647",1,69,0,4,2886.1,1,6,7,6,583.9,6,2
"648",1,69,0,2,2886.1,1,6,7,6,6.09999999999999,7,1
"649",1,70,0,1,3936.8,5,6,4,6,379.86,1,5
"650",1,70,0,3,3936.8,5,6,4,6,1049.75,2,4
"651",1,70,0,1,3936.8,5,6,4,6,13.8,3,3
"652",1,70,0,2,3936.8,5,6,4,6,388.1,4,2
"653",1,70,0,4,3936.8,5,6,4,6,1382,5,1
"654",1,71,1,1,4694.1,6,7,4,3,375.82,1,11
"655",1,71,1,3,4694.1,6,7,4,3,318.02,2,10
"656",1,71,1,1,4694.1,6,7,4,3,451.98,3,9
"657",1,71,1,3,4694.1,6,7,4,3,237.5,4,8
"658",1,71,1,2,4694.1,6,7,4,3,399.5,5,7
"659",1,71,1,4,4694.1,6,7,4,3,622.1,6,6
"660",1,71,1,1,4694.1,6,7,4,3,69.9999999999998,7,5
"661",1,71,1,2,4694.1,6,7,4,3,424.1,8,4
"662",1,71,1,1,4694.1,6,7,4,3,10.1,9,3
"663",1,71,1,3,4694.1,6,7,4,3,544.1,10,2
"664",1,71,1,1,4694.1,6,7,4,3,135.9,11,1
"665",1,72,0,1,4520,5,7,7,5,769.74,1,8
"666",1,72,0,3,4520,5,7,7,5,457.18,2,7
"667",1,72,0,1,4520,5,7,7,5,199.8,3,6
"668",1,72,0,2,4520,5,7,7,5,264.1,4,5
"669",1,72,0,4,4520,5,7,7,5,916.1,5,4
"670",1,72,0,2,4520,5,7,7,5,596.2,6,3
"671",1,72,0,3,4520,5,7,7,5,686.1,7,2
"672",1,72,0,2,4520,5,7,7,5,109.999999999999,8,1
"673",1,73,0,1,7107.5,5,6,3,6,849.87,1,12
"674",1,73,0,3,7107.5,5,6,3,6,348.1,2,11
"675",1,73,0,2,7107.5,5,6,3,6,414.3,3,10
"676",1,73,0,4,7107.5,5,6,3,6,496,4,9
"677",1,73,0,2,7107.5,5,6,3,6,522.1,5,8
"678",1,73,0,1,7107.5,5,6,3,6,11.9000000000002,6,7
"679",1,73,0,3,7107.5,5,6,3,6,905.7,7,6
"680",1,73,0,1,7107.5,5,6,3,6,30.0000000000002,8,5
"681",1,73,0,2,7107.5,5,6,3,6,577.9,9,4
"682",1,73,0,4,7107.5,5,6,3,6,658,10,3
"683",1,73,0,3,7107.5,5,6,3,6,4.09999999999933,11,2
"684",1,73,0,1,7107.5,5,6,3,6,508,12,1
"685",1,74,1,1,8345.6,7,4,7,7,899.95,1,12
"686",1,74,1,3,8345.6,7,4,7,7,467.9,2,11
"687",1,74,1,4,8345.6,7,4,7,7,144.2,3,10
"688",1,74,1,2,8345.6,7,4,7,7,1582,4,9
"689",1,74,1,4,8345.6,7,4,7,7,450.1,5,8
"690",1,74,1,3,8345.6,7,4,7,7,277,6,7
"691",1,74,1,1,8345.6,7,4,7,7,372.199999999999,7,6
"692",1,74,1,3,8345.6,7,4,7,7,332.2,8,5
"693",1,74,1,1,8345.6,7,4,7,7,1358,9,4
"694",1,74,1,3,8345.6,7,4,7,7,776.1,10,3
"695",1,74,1,4,8345.6,7,4,7,7,347.9,11,2
"696",1,74,1,2,8345.6,7,4,7,7,372.100000000001,12,1
"697",1,75,1,1,2481.7,5,5,5,4,553.84,1,6
"698",1,75,1,3,2481.7,5,5,5,4,562.09,2,5
"699",1,75,1,1,2481.7,5,5,5,4,298.2,3,4
"700",1,75,1,2,2481.7,5,5,5,4,340.1,4,3
"701",1,75,1,4,2481.7,5,5,5,4,305.8,5,2
"702",1,75,1,2,2481.7,5,5,5,4,161.8,6,1
"703",1,76,0,1,3775.2,4,5,4,6,603.97,1,7
"704",1,76,0,3,3775.2,4,5,4,6,365.57,2,6
"705",1,76,0,1,3775.2,4,5,4,6,148.1,3,5
"706",1,76,0,2,3775.2,4,5,4,6,500.1,4,4
"707",1,76,0,4,3775.2,4,5,4,6,634.1,5,3
"708",1,76,0,3,3775.2,4,5,4,6,411.6,6,2
"709",1,76,0,1,3775.2,4,5,4,6,10.5999999999997,7,1
"710",1,77,0,1,6845.8,5,6,7,6,439.77,1,13
"711",1,77,0,3,6845.8,5,6,7,6,339.76,2,12
"712",1,77,0,1,6845.8,5,6,7,6,272.18,3,11
"713",1,77,0,2,6845.8,5,6,7,6,410.2,4,10
"714",1,77,0,4,6845.8,5,6,7,6,881.1,5,9
"715",1,77,0,2,6845.8,5,6,7,6,320.1,6,8
"716",1,77,0,1,6845.8,5,6,7,6,7.80000000000003,7,7
"717",1,77,0,3,6845.8,5,6,7,6,886,8,6
"718",1,77,0,1,6845.8,5,6,7,6,938.1,9,5
"719",1,77,0,3,6845.8,5,6,7,6,484.1,10,4
"720",1,77,0,4,6845.8,5,6,7,6,362.1,11,3
"721",1,77,0,2,6845.8,5,6,7,6,462.2,12,2
"722",1,77,0,4,6845.8,5,6,7,6,275.6,13,1
"723",1,78,1,1,4011.2,5,3,5,6,249.82,1,10
"724",1,78,1,3,4011.2,5,3,5,6,297.9,2,9
"725",1,78,1,1,4011.2,5,3,5,6,472.11,3,8
"726",1,78,1,3,4011.2,5,3,5,6,256,4,7
"727",1,78,1,4,4011.2,5,3,5,6,431.9,5,6
"728",1,78,1,2,4011.2,5,3,5,6,581.6,6,5
"729",1,78,1,4,4011.2,5,3,5,6,345.5,7,4
"730",1,78,1,1,4011.2,5,3,5,6,371.9,8,3
"731",1,78,1,3,4011.2,5,3,5,6,588,9,2
"732",1,78,1,1,4011.2,5,3,5,6,71.9999999999996,10,1
"733",1,79,0,1,3806.7,3,7,7,6,949.8,1,6
"734",1,79,0,3,3806.7,3,7,7,6,397.9,2,5
"735",1,79,0,1,3806.7,3,7,7,6,472.3,3,4
"736",1,79,0,2,3806.7,3,7,7,6,306.9,4,3
"737",1,79,0,4,3806.7,3,7,7,6,544,5,2
"738",1,79,0,2,3806.7,3,7,7,6,691.8,6,1
"739",1,80,1,1,5867.3,6,7,6,5,1076.9,1,9
"740",1,80,1,3,5867.3,6,7,6,5,638,2,8
"741",1,80,1,1,5867.3,6,7,6,5,159.9,3,7
"742",1,80,1,2,5867.3,6,7,6,5,303,4,6
"743",1,80,1,4,5867.3,6,7,6,5,512,5,5
"744",1,80,1,3,5867.3,6,7,6,5,1421.9,6,4
"745",1,80,1,1,5867.3,6,7,6,5,190.2,7,3
"746",1,80,1,2,5867.3,6,7,6,5,692.299999999999,8,2
"747",1,80,1,4,5867.3,6,7,6,5,245.6,9,1
"748",1,81,1,1,2405.3,6,6,6,6,407.36,1,6
"749",1,81,1,3,2405.3,6,6,6,6,402.03,2,5
"750",1,81,1,2,2405.3,6,6,6,6,384,3,4
"751",1,81,1,4,2405.3,6,6,6,6,519.9,4,3
"752",1,81,1,1,2405.3,6,6,6,6,259.8,5,2
"753",1,81,1,3,2405.3,6,6,6,6,13.5999999999998,6,1
"754",1,82,1,1,4994.2,3,7,3,5,427.76,1,8
"755",1,82,1,3,4994.2,3,7,3,5,603.84,2,7
"756",1,82,1,1,4994.2,3,7,3,5,12,3,6
"757",1,82,1,2,4994.2,3,7,3,5,331.1,4,5
"758",1,82,1,4,4994.2,3,7,3,5,922,5,4
"759",1,82,1,2,4994.2,3,7,3,5,494.1,6,3
"760",1,82,1,3,4994.2,3,7,3,5,1172.1,7,2
"761",1,82,1,1,4994.2,3,7,3,5,36.1000000000002,8,1
"762",1,83,0,3,4633,5,7,4,5,3.75,1,9
"763",1,83,0,1,4633,5,7,4,5,709.88,2,8
"764",1,83,0,3,4633,5,7,4,5,595.82,3,7
"765",1,83,0,4,4633,5,7,4,5,282,4,6
"766",1,83,0,2,4633,5,7,4,5,1298.1,5,5
"767",1,83,0,1,4633,5,7,4,5,9.80000000000025,6,4
"768",1,83,0,3,4633,5,7,4,5,303.9,7,3
"769",1,83,0,1,4633,5,7,4,5,697.9,8,2
"770",1,83,0,3,4633,5,7,4,5,75.8999999999999,9,1
"771",1,84,1,1,8033,6,6,5,8,499.94,1,14
"772",1,84,1,3,8033,6,6,5,8,741.63,2,13
"773",1,84,1,1,8033,6,6,5,8,55.9000000000001,3,12
"774",1,84,1,2,8033,6,6,5,8,318,4,11
"775",1,84,1,4,8033,6,6,5,8,497.9,5,10
"776",1,84,1,2,8033,6,6,5,8,664.2,6,9
"777",1,84,1,4,8033,6,6,5,8,420,7,8
"778",1,84,1,3,8033,6,6,5,8,360,8,7
"779",1,84,1,1,8033,6,6,5,8,882.099999999999,9,6
"780",1,84,1,3,8033,6,6,5,8,336.1,10,5
"781",1,84,1,1,8033,6,6,5,8,382.2,11,4
"782",1,84,1,3,8033,6,6,5,8,564,12,3
"783",1,84,1,2,8033,6,6,5,8,881.9,13,2
"784",1,84,1,4,8033,6,6,5,8,483.8,14,1
"785",1,85,1,1,10228.9,6,3,4,7,1413.82,1,14
"786",1,85,1,3,10228.9,6,3,4,7,2.09999999999999,2,13
"787",1,85,1,1,10228.9,6,3,4,7,1988,3,12
"788",1,85,1,3,10228.9,6,3,4,7,760.1,4,11
"789",1,85,1,1,10228.9,6,3,4,7,128.200000000001,5,10
"790",1,85,1,2,10228.9,6,3,4,7,356.1,6,9
"791",1,85,1,4,10228.9,6,3,4,7,487.9,7,8
"792",1,85,1,2,10228.9,6,3,4,7,299.9,8,7
"793",1,85,1,1,10228.9,6,3,4,7,3.89999999999979,9,6
"794",1,85,1,3,10228.9,6,3,4,7,22.1,10,5
"795",1,85,1,1,10228.9,6,3,4,7,1068,11,4
"796",1,85,1,3,10228.9,6,3,4,7,608.000000000001,12,3
"797",1,85,1,4,10228.9,6,3,4,7,376.4,13,2
"798",1,85,1,2,10228.9,6,3,4,7,1369.5,14,1
"799",1,86,1,1,7986.4,7,3,6,4,403.83,1,17
"800",1,86,1,3,7986.4,7,3,6,4,107.65,2,16
"801",1,86,1,1,7986.4,7,3,6,4,6.08999999999993,3,15
"802",1,86,1,3,7986.4,7,3,6,4,19.97,4,14
"803",1,86,1,1,7986.4,7,3,6,4,54.09,5,13
"804",1,86,1,3,7986.4,7,3,6,4,184.05,6,12
"805",1,86,1,1,7986.4,7,3,6,4,485.9,7,11
"806",1,86,1,3,7986.4,7,3,6,4,1207.9,8,10
"807",1,86,1,1,7986.4,7,3,6,4,178.1,9,9
"808",1,86,1,2,7986.4,7,3,6,4,318.1,10,8
"809",1,86,1,4,7986.4,7,3,6,4,386.2,11,7
"810",1,86,1,2,7986.4,7,3,6,4,616.2,12,6
"811",1,86,1,3,7986.4,7,3,6,4,437.1,13,5
"812",1,86,1,1,7986.4,7,3,6,4,524.1,14,4
"813",1,86,1,3,7986.4,7,3,6,4,413.7,15,3
"814",1,86,1,4,7986.4,7,3,6,4,577.900000000001,16,2
"815",1,86,1,3,7986.4,7,3,6,4,906.099999999999,17,1
"816",1,87,0,1,2793.2,3,5,3,4,545.272,1,7
"817",1,87,0,3,2793.2,3,5,3,4,576.24,2,6
"818",1,87,0,2,2793.2,3,5,3,4,316,3,5
"819",1,87,0,4,2793.2,3,5,3,4,299.9,4,4
"820",1,87,0,2,2793.2,3,5,3,4,400.2,5,3
"821",1,87,0,4,2793.2,3,5,3,4,228.1,6,2
"822",1,87,0,1,2793.2,3,5,3,4,5.99999999999978,7,1
"823",1,88,0,1,3301.3,6,5,3,7,229.9,1,8
"824",1,88,0,3,3301.3,6,5,3,7,348,2,7
"825",1,88,0,1,3301.3,6,5,3,7,434,3,6
"826",1,88,0,3,3301.3,6,5,3,7,492.1,4,5
"827",1,88,0,2,3301.3,6,5,3,7,408.2,5,4
"828",1,88,0,4,3301.3,6,5,3,7,502,6,3
"829",1,88,0,3,3301.3,6,5,3,7,306,7,2
"830",1,88,0,1,3301.3,6,5,3,7,10.0000000000002,8,1
"831",1,89,1,1,3334,6,6,6,4,669.85,1,8
"832",1,89,1,3,3334,6,6,6,4,555.89,2,7
"833",1,89,1,2,3334,6,6,6,4,346.1,3,6
"834",1,89,1,4,3334,6,6,6,4,388.1,4,5
"835",1,89,1,2,3334,6,6,6,4,430.1,5,4
"836",1,89,1,4,3334,6,6,6,4,143.7,6,3
"837",1,89,1,2,3334,6,6,6,4,147.8,7,2
"838",1,89,1,1,3334,6,6,6,4,1.99999999999978,8,1
"839",1,90,1,1,3204.1,7,2,3,2,481.84,1,8
"840",1,90,1,3,3204.1,7,2,3,2,290.08,2,7
"841",1,90,1,1,3204.1,7,2,3,2,271.87,3,6
"842",1,90,1,2,3204.1,7,2,3,2,324.1,4,5
"843",1,90,1,4,3204.1,7,2,3,2,608.2,5,4
"844",1,90,1,2,3204.1,7,2,3,2,260.2,6,3
"845",1,90,1,1,3204.1,7,2,3,2,342.1,7,2
"846",1,90,1,3,3204.1,7,2,3,2,317.5,8,1
"847",1,91,0,1,5032.9,3,7,5,7,405.96,1,9
"848",1,91,0,3,5032.9,3,7,5,7,417.81,2,8
"849",1,91,0,1,5032.9,3,7,5,7,180.2,3,7
"850",1,91,0,2,5032.9,3,7,5,7,349.9,4,6
"851",1,91,0,4,5032.9,3,7,5,7,408.1,5,5
"852",1,91,0,2,5032.9,3,7,5,7,406,6,4
"853",1,91,0,4,5032.9,3,7,5,7,466,7,3
"854",1,91,0,3,5032.9,3,7,5,7,440.5,8,2
"855",1,91,0,1,5032.9,3,7,5,7,129.9,9,1
"856",1,92,1,1,4737,5,6,7,5,513.82,1,9
"857",1,92,1,3,4737,5,6,7,5,369.26,2,8
"858",1,92,1,1,4737,5,6,7,5,366,3,7
"859",1,92,1,2,4737,5,6,7,5,504,4,6
"860",1,92,1,4,4737,5,6,7,5,754.2,5,5
"861",1,92,1,3,4737,5,6,7,5,539.9,6,4
"862",1,92,1,1,4737,5,6,7,5,542.1,7,3
"863",1,92,1,3,4737,5,6,7,5,379.9,8,2
"864",1,92,1,2,4737,5,6,7,5,433.6,9,1
"865",1,93,0,1,4471,4,6,6,3,397.73,1,8
"866",1,93,0,3,4471,4,6,6,3,482.44,2,7
"867",1,93,0,1,4471,4,6,6,3,478.2,3,6
"868",1,93,0,3,4471,4,6,6,3,216,4,5
"869",1,93,0,4,4471,4,6,6,3,281.8,5,4
"870",1,93,0,2,4471,4,6,6,3,860.5,6,3
"871",1,93,0,4,4471,4,6,6,3,698,7,2
"872",1,93,0,2,4471,4,6,6,3,625.3,8,1
"873",1,94,0,1,5181,4,6,6,6,1609.84,1,10
"874",1,94,0,3,5181,4,6,6,6,490,2,9
"875",1,94,0,2,5181,4,6,6,6,314,3,8
"876",1,94,0,4,5181,4,6,6,6,528,4,7
"877",1,94,0,3,5181,4,6,6,6,303.9,5,6
"878",1,94,0,1,5181,4,6,6,6,304.8,6,5
"879",1,94,0,3,5181,4,6,6,6,429.9,7,4
"880",1,94,0,1,5181,4,6,6,6,226,8,3
"881",1,94,0,2,5181,4,6,6,6,434,9,2
"882",1,94,0,4,5181,4,6,6,6,105.4,10,1
"883",1,95,0,1,4131.2,7,7,7,6,445.78,1,8
"884",1,95,0,3,4131.2,7,7,7,6,370.13,2,7
"885",1,95,0,1,4131.2,7,7,7,6,457.96,3,6
"886",1,95,0,3,4131.2,7,7,7,6,438.1,4,5
"887",1,95,0,1,4131.2,7,7,7,6,250,5,4
"888",1,95,0,2,4131.2,7,7,7,6,212.1,6,3
"889",1,95,0,4,4131.2,7,7,7,6,848,7,2
"890",1,95,0,2,4131.2,7,7,7,6,765.4,8,1
"891",1,96,0,1,6243.2,3,5,5,7,465.84,1,11
"892",1,96,0,3,6243.2,3,5,5,7,592.02,2,10
"893",1,96,0,4,6243.2,3,5,5,7,360.2,3,9
"894",1,96,0,2,6243.2,3,5,5,7,538,4,8
"895",1,96,0,4,6243.2,3,5,5,7,276.1,5,7
"896",1,96,0,1,6243.2,3,5,5,7,359.9,6,6
"897",1,96,0,3,6243.2,3,5,5,7,695.9,7,5
"898",1,96,0,1,6243.2,3,5,5,7,611.7,8,4
"899",1,96,0,2,6243.2,3,5,5,7,468,9,3
"900",1,96,0,4,6243.2,3,5,5,7,685.3,10,2
"901",1,96,0,2,6243.2,3,5,5,7,779.5,11,1
"902",1,97,0,1,2700.7,5,5,3,2,363.72,1,4
"903",1,97,0,3,2700.7,5,5,3,2,460.15,2,3
"904",1,97,0,4,2700.7,5,5,3,2,84.0000000000001,3,2
"905",1,97,0,3,2700.7,5,5,3,2,319.4,4,1
"906",1,98,0,3,8892.5,4,5,3,6,10.02,1,12
"907",1,98,0,1,8892.5,4,5,3,6,954.04,2,11
"908",1,98,0,3,8892.5,4,5,3,6,16,3,10
"909",1,98,0,1,8892.5,4,5,3,6,3261.9,4,9
"910",1,98,0,3,8892.5,4,5,3,6,748,5,8
"911",1,98,0,4,8892.5,4,5,3,6,570.1,6,7
"912",1,98,0,2,8892.5,4,5,3,6,564.2,7,6
"913",1,98,0,1,8892.5,4,5,3,6,344.1,8,5
"914",1,98,0,3,8892.5,4,5,3,6,426.1,9,4
"915",1,98,0,1,8892.5,4,5,3,6,648.199999999999,10,3
"916",1,98,0,2,8892.5,4,5,3,6,141.999999999999,11,2
"917",1,98,0,4,8892.5,4,5,3,6,8.5999999999995,12,1
"918",1,99,1,3,3262.9,5,5,6,7,4.054,1,9
"919",1,99,1,2,3262.9,5,5,6,7,385.76,2,8
"920",1,99,1,4,3262.9,5,5,6,7,359.81,3,7
"921",1,99,1,2,3262.9,5,5,6,7,338,4,6
"922",1,99,1,1,3262.9,5,5,6,7,188,5,5
"923",1,99,1,3,3262.9,5,5,6,7,473.9,6,4
"924",1,99,1,1,3262.9,5,5,6,7,439.9,7,3
"925",1,99,1,2,3262.9,5,5,6,7,266.5,8,2
"926",1,99,1,4,3262.9,5,5,6,7,199.4,9,1
"927",1,100,1,1,4956.9,7,1,4,6,371.88,1,10
"928",1,100,1,3,4956.9,7,1,4,6,418.03,2,9
"929",1,100,1,1,4956.9,7,1,4,6,167.93,3,8
"930",1,100,1,2,4956.9,7,1,4,6,298.1,4,7
"931",1,100,1,4,4956.9,7,1,4,6,473.9,5,6
"932",1,100,1,2,4956.9,7,1,4,6,870.2,6,5
"933",1,100,1,1,4956.9,7,1,4,6,356.1,7,4
"934",1,100,1,3,4956.9,7,1,4,6,476.1,8,3
"935",1,100,1,4,4956.9,7,1,4,6,500,9,2
"936",1,100,1,2,4956.9,7,1,4,6,482.1,10,1
"937",1,101,1,1,2459.1,6,3,6,4,401.86,1,7
"938",1,101,1,3,2459.1,6,3,6,4,394.12,2,6
"939",1,101,1,1,2459.1,6,3,6,4,14.2000000000002,3,5
"940",1,101,1,2,2459.1,6,3,6,4,230,4,4
"941",1,101,1,4,2459.1,6,3,6,4,362.2,5,3
"942",1,101,1,2,2459.1,6,3,6,4,217.8,6,2
"943",1,101,1,1,2459.1,6,3,6,4,261.3,7,1
"944",1,102,1,1,2887.1,6,3,5,6,190.21,1,7
"945",1,102,1,3,2887.1,6,3,5,6,522.08,2,6
"946",1,102,1,1,2887.1,6,3,5,6,563.5,3,5
"947",1,102,1,3,2887.1,6,3,5,6,234,4,4
"948",1,102,1,4,2887.1,6,3,5,6,246.2,5,3
"949",1,102,1,2,2887.1,6,3,5,6,440,6,2
"950",1,102,1,4,2887.1,6,3,5,6,232.1,7,1
"951",1,103,1,1,3569.6,3,5,8,1,953.81,1,7
"952",1,103,1,3,3569.6,3,5,8,1,10.1,2,6
"953",1,103,1,4,3569.6,3,5,8,1,282,3,5
"954",1,103,1,2,3569.6,3,5,8,1,569.4,4,4
"955",1,103,1,1,3569.6,3,5,8,1,6.00000000000023,5,3
"956",1,103,1,4,3569.6,3,5,8,1,452.1,6,2
"957",1,103,1,2,3569.6,3,5,8,1,59.0999999999999,7,1
"958",1,104,1,1,5455.7,6,7,7,2,1223.72,1,8
"959",1,104,1,3,5455.7,6,7,7,2,294.2,2,7
"960",1,104,1,4,5455.7,6,7,7,2,356.1,3,6
"961",1,104,1,2,5455.7,6,7,7,2,782.1,4,5
"962",1,104,1,4,5455.7,6,7,7,2,509.9,5,4
"963",1,104,1,3,5455.7,6,7,7,2,530,6,3
"964",1,104,1,1,5455.7,6,7,7,2,916,7,2
"965",1,104,1,3,5455.7,6,7,7,2,224,8,1
"966",1,105,1,1,4555.9,5,6,5,1,703.87,1,9
"967",1,105,1,3,4555.9,5,6,5,1,601.94,2,8
"968",1,105,1,1,4555.9,5,6,5,1,226.1,3,7
"969",1,105,1,2,4555.9,5,6,5,1,402.1,4,6
"970",1,105,1,4,4555.9,5,6,5,1,609.9,5,5
"971",1,105,1,1,4555.9,5,6,5,1,230.3,6,4
"972",1,105,1,3,4555.9,5,6,5,1,394.2,7,3
"973",1,105,1,1,4555.9,5,6,5,1,486.6,8,2
"974",1,105,1,2,4555.9,5,6,5,1,445.1,9,1
"975",1,106,1,1,3970.6,4,3,3,5,391.82,1,7
"976",1,106,1,3,3970.6,4,3,3,5,500.16,2,6
"977",1,106,1,4,3970.6,4,3,3,5,268.9,3,5
"978",1,106,1,2,3970.6,4,3,3,5,658,4,4
"979",1,106,1,4,3970.6,4,3,3,5,610,5,3
"980",1,106,1,3,3970.6,4,3,3,5,342.9,6,2
"981",1,106,1,1,3970.6,4,3,3,5,755.1,7,1
"982",1,107,1,1,2025.4,6,1,7,6,397.84,1,5
"983",1,107,1,3,2025.4,6,1,7,6,493.95,2,4
"984",1,107,1,4,2025.4,6,1,7,6,190,3,3
"985",1,107,1,2,2025.4,6,1,7,6,528.1,4,2
"986",1,107,1,4,2025.4,6,1,7,6,159.2,5,1
"987",1,108,0,1,6465.3,5,6,3,4,434,1,11
"988",1,108,0,3,6465.3,5,6,3,4,512.03,2,10
"989",1,108,0,1,6465.3,5,6,3,4,1651.8,3,9
"990",1,108,0,3,6465.3,5,6,3,4,556,4,8
"991",1,108,0,1,6465.3,5,6,3,4,242.2,5,7
"992",1,108,0,2,6465.3,5,6,3,4,272.1,6,6
"993",1,108,0,4,6465.3,5,6,3,4,523.7,7,5
"994",1,108,0,2,6465.3,5,6,3,4,315.700000000001,8,4
"995",1,108,0,4,6465.3,5,6,3,4,598,9,3
"996",1,108,0,3,6465.3,5,6,3,4,398.000000000001,10,2
"997",1,108,0,1,6465.3,5,6,3,4,9.80000000000025,11,1
"998",1,109,0,1,5179.4,4,7,2,6,399.79,1,10
"999",1,109,0,3,5179.4,4,7,2,6,1597.89,2,9
"1000",1,109,0,1,5179.4,4,7,2,6,440,3,8
"1001",1,109,0,2,5179.4,4,7,2,6,278.2,4,7
"1002",1,109,0,4,5179.4,4,7,2,6,422.1,5,6
"1003",1,109,0,2,5179.4,4,7,2,6,352,6,5
"1004",1,109,0,3,5179.4,4,7,2,6,358,7,4
"1005",1,109,0,1,5179.4,4,7,2,6,374,8,3
"1006",1,109,0,3,5179.4,4,7,2,6,374.1,9,2
"1007",1,109,0,2,5179.4,4,7,2,6,1.00000000000033,10,1
"1008",1,110,0,1,2783,5,7,2,5,503.86,1,6
"1009",1,110,0,3,2783,5,7,2,5,589.89,2,5
"1010",1,110,0,1,2783,5,7,2,5,280.1,3,4
"1011",1,110,0,2,2783,5,7,2,5,469.9,4,3
"1012",1,110,0,4,2783,5,7,2,5,420.1,5,2
"1013",1,110,0,2,2783,5,7,2,5,227,6,1
"1014",1,111,0,1,4332.1,7,2,5,7,1347.4,1,5
"1015",1,111,0,3,4332.1,7,2,5,7,541.9,2,4
"1016",1,111,0,4,4332.1,7,2,5,7,450,3,3
"1017",1,111,0,2,4332.1,7,2,5,7,1076,4,2
"1018",1,111,0,4,4332.1,7,2,5,7,642.7,5,1
"1019",1,112,1,1,2880.3,2,5,5,3,589.91,1,4
"1020",1,112,1,3,2880.3,2,5,5,3,528.9,2,3
"1021",1,112,1,4,2880.3,2,5,5,3,870.1,3,2
"1022",1,112,1,2,2880.3,2,5,5,3,538.1,4,1
"1023",1,113,0,1,2665.8,5,6,1,6,515.89,1,5
"1024",1,113,0,3,2665.8,5,6,1,6,9.96000000000008,2,4
"1025",1,113,0,4,2665.8,5,6,1,6,425.7,3,3
"1026",1,113,0,2,2665.8,5,6,1,6,457.8,4,2
"1027",1,113,0,4,2665.8,5,6,1,6,197,5,1
"1028",1,114,1,3,4187.8,6,4,7,5,1.28,1,10
"1029",1,114,1,1,4187.8,6,4,7,5,357.84,2,9
"1030",1,114,1,3,4187.8,6,4,7,5,658.67,3,8
"1031",1,114,1,1,4187.8,6,4,7,5,664.1,4,7
"1032",1,114,1,3,4187.8,6,4,7,5,2,5,6
"1033",1,114,1,1,4187.8,6,4,7,5,429.7,6,5
"1034",1,114,1,3,4187.8,6,4,7,5,298.1,7,4
"1035",1,114,1,4,4187.8,6,4,7,5,352,8,3
"1036",1,114,1,2,4187.8,6,4,7,5,543.8,9,2
"1037",1,114,1,1,4187.8,6,4,7,5,280,10,1
"1038",1,115,1,1,3696.4,7,4,5,3,467.76,1,8
"1039",1,115,1,3,3696.4,7,4,5,3,10.08,2,7
"1040",1,115,1,4,3696.4,7,4,5,3,313.9,3,6
"1041",1,115,1,2,3696.4,7,4,5,3,632.1,4,5
"1042",1,115,1,4,3696.4,7,4,5,3,366.2,5,4
"1043",1,115,1,3,3696.4,7,4,5,3,185.9,6,3
"1044",1,115,1,1,3696.4,7,4,5,3,503,7,2
"1045",1,115,1,3,3696.4,7,4,5,3,219.9,8,1
"1046",1,116,0,1,2871.8,8,7,6,4,388.06,1,4
"1047",1,116,0,2,2871.8,8,7,6,4,594.12,2,3
"1048",1,116,0,4,2871.8,8,7,6,4,1024.1,3,2
"1049",1,116,0,3,2871.8,8,7,6,4,496.7,4,1
"1050",1,117,1,1,2633.3,6,4,7,5,589.98,1,5
"1051",1,117,1,3,2633.3,6,4,7,5,427.89,2,4
"1052",1,117,1,4,2633.3,6,4,7,5,308,3,3
"1053",1,117,1,2,2633.3,6,4,7,5,634.1,4,2
"1054",1,117,1,1,2633.3,6,4,7,5,2.00000000000022,5,1
"1055",1,118,1,1,6158.4,2,6,5,2,479.93,1,12
"1056",1,118,1,3,6158.4,2,6,5,2,3.85000000000002,2,11
"1057",1,118,1,2,6158.4,2,6,5,2,696.07,3,10
"1058",1,118,1,1,6158.4,2,6,5,2,1221.8,4,9
"1059",1,118,1,3,6158.4,2,6,5,2,431.3,5,8
"1060",1,118,1,1,6158.4,2,6,5,2,7.8999999999998,6,7
"1061",1,118,1,2,6158.4,2,6,5,2,422,7,6
"1062",1,118,1,4,6158.4,2,6,5,2,364,8,5
"1063",1,118,1,2,6158.4,2,6,5,2,395.9,9,4
"1064",1,118,1,1,6158.4,2,6,5,2,312.1,10,3
"1065",1,118,1,3,6158.4,2,6,5,2,264,11,2
"1066",1,118,1,4,6158.4,2,6,5,2,92.4000000000005,12,1
"1067",1,119,1,1,2029.4,7,7,4,3,485.75,1,4
"1068",1,119,1,3,2029.4,7,7,4,3,430.03,2,3
"1069",1,119,1,4,2029.4,7,7,4,3,188,3,2
"1070",1,119,1,2,2029.4,7,7,4,3,509.8,4,1
"1071",1,120,1,1,14845.3,6,7,6,6,759.69,1,31
"1072",1,120,1,3,14845.3,6,7,6,6,1174.04,2,30
"1073",1,120,1,4,14845.3,6,7,6,6,470,3,29
"1074",1,120,1,2,14845.3,6,7,6,6,266.1,4,28
"1075",1,120,1,1,14845.3,6,7,6,6,134.1,5,27
"1076",1,120,1,3,14845.3,6,7,6,6,2.00000000000022,6,26
"1077",1,120,1,1,14845.3,6,7,6,6,692.1,7,25
"1078",1,120,1,3,14845.3,6,7,6,6,339.9,8,24
"1079",1,120,1,1,14845.3,6,7,6,6,641.900000000001,9,23
"1080",1,120,1,3,14845.3,6,7,6,6,110.1,10,22
"1081",1,120,1,1,14845.3,6,7,6,6,204.2,11,21
"1082",1,120,1,2,14845.3,6,7,6,6,400.1,12,20
"1083",1,120,1,1,14845.3,6,7,6,6,3.99999999999956,13,19
"1084",1,120,1,4,14845.3,6,7,6,6,487.9,14,18
"1085",1,120,1,2,14845.3,6,7,6,6,206.1,15,17
"1086",1,120,1,1,14845.3,6,7,6,6,308.2,16,16
"1087",1,120,1,3,14845.3,6,7,6,6,2.00000000000067,17,15
"1088",1,120,1,1,14845.3,6,7,6,6,254.2,18,14
"1089",1,120,1,2,14845.3,6,7,6,6,598.2,19,13
"1090",1,120,1,1,14845.3,6,7,6,6,320,20,12
"1091",1,120,1,2,14845.3,6,7,6,6,190.099999999999,21,11
"1092",1,120,1,4,14845.3,6,7,6,6,3.99999999999956,22,10
"1093",1,120,1,3,14845.3,6,7,6,6,1992.2,23,9
"1094",1,120,1,1,14845.3,6,7,6,6,667.999999999999,24,8
"1095",1,120,1,3,14845.3,6,7,6,6,396.000000000001,25,7
"1096",1,120,1,4,14845.3,6,7,6,6,124.1,26,6
"1097",1,120,1,3,14845.3,6,7,6,6,315.999999999999,27,5
"1098",1,120,1,2,14845.3,6,7,6,6,346,28,4
"1099",1,120,1,4,14845.3,6,7,6,6,420.1,29,3
"1100",1,120,1,1,14845.3,6,7,6,6,312.100000000001,30,2
"1101",1,120,1,3,14845.3,6,7,6,6,474.7,31,1
"1102",1,121,1,1,5211.7,6,4,4,3,1173.8,1,8
"1103",1,121,1,3,5211.7,6,4,4,3,850,2,7
"1104",1,121,1,1,5211.7,6,4,4,3,200,3,6
"1105",1,121,1,2,5211.7,6,4,4,3,778,4,5
"1106",1,121,1,4,5211.7,6,4,4,3,288.6,5,4
"1107",1,121,1,3,5211.7,6,4,4,3,300.7,6,3
"1108",1,121,1,1,5211.7,6,4,4,3,827.5,7,2
"1109",1,121,1,3,5211.7,6,4,4,3,45.0000000000008,8,1
"1110",1,122,1,3,3619,5,7,6,4,117.953,1,10
"1111",1,122,1,1,3619,5,7,6,4,353.92,2,9
"1112",1,122,1,3,3619,5,7,6,4,424.07,3,8
"1113",1,122,1,1,3619,5,7,6,4,82.0000000000001,4,7
"1114",1,122,1,2,3619,5,7,6,4,268,5,6
"1115",1,122,1,4,3619,5,7,6,4,428,6,5
"1116",1,122,1,2,3619,5,7,6,4,240.1,7,4
"1117",1,122,1,1,3619,5,7,6,4,70.0000000000003,8,3
"1118",1,122,1,3,3619,5,7,6,4,719.9,9,2
"1119",1,122,1,1,3619,5,7,6,4,9.10000000000011,10,1
"1120",1,123,0,1,2248.4,6,7,5,7,383.73,1,6
"1121",1,123,0,3,2248.4,6,7,5,7,457.91,2,5
"1122",1,123,0,2,2248.4,6,7,5,7,2.02000000000002,3,4
"1123",1,123,0,4,2248.4,6,7,5,7,358,4,3
"1124",1,123,0,2,2248.4,6,7,5,7,570.2,5,2
"1125",1,123,0,4,2248.4,6,7,5,7,240.7,6,1
"1126",1,124,0,3,4985.7,3,7,2,4,3.92999999999999,1,10
"1127",1,124,0,1,4985.7,3,7,2,4,186.43,2,9
"1128",1,124,0,3,4985.7,3,7,2,4,548.07,3,8
"1129",1,124,0,1,4985.7,3,7,2,4,796,4,7
"1130",1,124,0,2,4985.7,3,7,2,4,554.1,5,6
"1131",1,124,0,4,4985.7,3,7,2,4,402,6,5
"1132",1,124,0,2,4985.7,3,7,2,4,225.6,7,4
"1133",1,124,0,1,4985.7,3,7,2,4,410.1,8,3
"1134",1,124,0,3,4985.7,3,7,2,4,992,9,2
"1135",1,124,0,1,4985.7,3,7,2,4,144.699999999999,10,1
"1136",1,125,0,1,4050.7,6,7,4,5,467.37,1,8
"1137",1,125,0,3,4050.7,6,7,4,5,542.01,2,7
"1138",1,125,0,1,4050.7,6,7,4,5,156,3,6
"1139",1,125,0,2,4050.7,6,7,4,5,352,4,5
"1140",1,125,0,4,4050.7,6,7,4,5,1030.8,5,4
"1141",1,125,0,3,4050.7,6,7,4,5,7.90000000000024,6,3
"1142",1,125,0,1,4050.7,6,7,4,5,465.8,7,2
"1143",1,125,0,2,4050.7,6,7,4,5,201,8,1
"1144",1,126,0,1,2365.2,7,8,4,6,351.75,1,6
"1145",1,126,0,3,2365.2,7,8,4,6,464.05,2,5
"1146",1,126,0,1,2365.2,7,8,4,6,309.8,3,4
"1147",1,126,0,2,2365.2,7,8,4,6,254.1,4,3
"1148",1,126,0,4,2365.2,7,8,4,6,460,5,2
"1149",1,126,0,2,2365.2,7,8,4,6,250.5,6,1
"1150",1,127,1,1,3052.7,6,5,5,4,815.68,1,7
"1151",1,127,1,3,3052.7,6,5,5,4,430.53,2,6
"1152",1,127,1,1,3052.7,6,5,5,4,148,3,5
"1153",1,127,1,2,3052.7,6,5,5,4,306.6,4,4
"1154",1,127,1,4,3052.7,6,5,5,4,413.9,5,3
"1155",1,127,1,2,3052.7,6,5,5,4,342.2,6,2
"1156",1,127,1,1,3052.7,6,5,5,4,304.6,7,1
"1157",1,128,1,1,7577.4,7,8,5,7,501.82,1,16
"1158",1,128,1,3,7577.4,7,8,5,7,294.04,2,15
"1159",1,128,1,1,7577.4,7,8,5,7,2.09999999999999,3,14
"1160",1,128,1,2,7577.4,7,8,5,7,284,4,13
"1161",1,128,1,4,7577.4,7,8,5,7,521.9,5,12
"1162",1,128,1,2,7577.4,7,8,5,7,669.9,6,11
"1163",1,128,1,1,7577.4,7,8,5,7,231.9,7,10
"1164",1,128,1,3,7577.4,7,8,5,7,563.800000000001,8,9
"1165",1,128,1,2,7577.4,7,8,5,7,6.00000000000023,9,8
"1166",1,128,1,4,7577.4,7,8,5,7,240,10,7
"1167",1,128,1,2,7577.4,7,8,5,7,200,11,6
"1168",1,128,1,4,7577.4,7,8,5,7,123.8,12,5
"1169",1,128,1,2,7577.4,7,8,5,7,568,13,4
"1170",1,128,1,1,7577.4,7,8,5,7,354,14,3
"1171",1,128,1,3,7577.4,7,8,5,7,364.100000000001,15,2
"1172",1,128,1,1,7577.4,7,8,5,7,430.1,16,1
"1173",1,129,1,3,7733.5,6,4,5,6,5.92400000000001,1,13
"1174",1,129,1,1,7733.5,6,4,5,6,372.26,2,12
"1175",1,129,1,3,7733.5,6,4,5,6,1731.97,3,11
"1176",1,129,1,1,7733.5,6,4,5,6,1032.1,4,10
"1177",1,129,1,3,7733.5,6,4,5,6,610.1,5,9
"1178",1,129,1,2,7733.5,6,4,5,6,343.9,6,8
"1179",1,129,1,4,7733.5,6,4,5,6,880.5,7,7
"1180",1,129,1,2,7733.5,6,4,5,6,487.9,8,6
"1181",1,129,1,1,7733.5,6,4,5,6,346.8,9,5
"1182",1,129,1,3,7733.5,6,4,5,6,540,10,4
"1183",1,129,1,1,7733.5,6,4,5,6,779.8,11,3
"1184",1,129,1,3,7733.5,6,4,5,6,2.09999999999955,12,2
"1185",1,129,1,1,7733.5,6,4,5,6,18.0999999999996,13,1
"1186",1,130,0,3,2229.5,6,3,5,4,19.411,1,4
"1187",1,130,0,1,2229.5,6,3,5,4,341.86,2,3
"1188",1,130,0,3,2229.5,6,3,5,4,177.98,3,2
"1189",1,130,0,2,2229.5,6,3,5,4,119.5,4,1
"1190",1,131,1,3,7648.1,7,5,4,4,3.819,1,14
"1191",1,131,1,1,7648.1,7,5,4,4,493.94,2,13
"1192",1,131,1,3,7648.1,7,5,4,4,523.94,3,12
"1193",1,131,1,1,7648.1,7,5,4,4,1734.3,4,11
"1194",1,131,1,3,7648.1,7,5,4,4,1131.9,5,10
"1195",1,131,1,4,7648.1,7,5,4,4,294.3,6,9
"1196",1,131,1,2,7648.1,7,5,4,4,520.1,7,8
"1197",1,131,1,4,7648.1,7,5,4,4,266.1,8,7
"1198",1,131,1,1,7648.1,7,5,4,4,410.1,9,6
"1199",1,131,1,3,7648.1,7,5,4,4,445.6,10,5
"1200",1,131,1,2,7648.1,7,5,4,4,274,11,4
"1201",1,131,1,4,7648.1,7,5,4,4,361.899999999999,12,3
"1202",1,131,1,2,7648.1,7,5,4,4,352.1,13,2
"1203",1,131,1,1,7648.1,7,5,4,4,244.5,14,1
"1204",1,132,1,1,6321,6,2,5,4,2069.81,1,11
"1205",1,132,1,3,6321,6,2,5,4,724,2,10
"1206",1,132,1,1,6321,6,2,5,4,479.8,3,9
"1207",1,132,1,3,6321,6,2,5,4,140,4,8
"1208",1,132,1,4,6321,6,2,5,4,274.8,5,7
"1209",1,132,1,2,6321,6,2,5,4,515.099999999999,6,6
"1210",1,132,1,4,6321,6,2,5,4,293.900000000001,7,5
"1211",1,132,1,2,6321,6,2,5,4,322,8,4
"1212",1,132,1,4,6321,6,2,5,4,374.1,9,3
"1213",1,132,1,3,6321,6,2,5,4,349.1,10,2
"1214",1,132,1,1,6321,6,2,5,4,152.6,11,1
"1215",1,133,1,3,4469.8,4,5,6,2,11.93,1,9
"1216",1,133,1,1,4469.8,4,5,6,2,728.07,2,8
"1217",1,133,1,3,4469.8,4,5,6,2,11.9999999999998,3,7
"1218",1,133,1,1,4469.8,4,5,6,2,478.1,4,6
"1219",1,133,1,3,4469.8,4,5,6,2,1392.1,5,5
"1220",1,133,1,1,4469.8,4,5,6,2,334.3,6,4
"1221",1,133,1,2,4469.8,4,5,6,2,272.1,7,3
"1222",1,133,1,4,4469.8,4,5,6,2,582.2,8,2
"1223",1,133,1,3,4469.8,4,5,6,2,208.5,9,1
"1224",1,134,0,1,3373.8,7,6,4,2,401.87,1,8
"1225",1,134,0,3,3373.8,7,6,4,2,399.82,2,7
"1226",1,134,0,1,3373.8,7,6,4,2,470,3,6
"1227",1,134,0,3,3373.8,7,6,4,2,284,4,5
"1228",1,134,0,2,3373.8,7,6,4,2,264,5,4
"1229",1,134,0,4,3373.8,7,6,4,2,422.2,6,3
"1230",1,134,0,2,3373.8,7,6,4,2,577,7,2
"1231",1,134,0,4,3373.8,7,6,4,2,198.4,8,1
"1232",1,135,0,1,5880.4,7,5,6,6,545.83,1,10
"1233",1,135,0,3,5880.4,7,5,6,6,620.04,2,9
"1234",1,135,0,1,5880.4,7,5,6,6,312.1,3,8
"1235",1,135,0,3,5880.4,7,5,6,6,1170.9,4,7
"1236",1,135,0,2,5880.4,7,5,6,6,970.3,5,6
"1237",1,135,0,4,5880.4,7,5,6,6,493.8,6,5
"1238",1,135,0,2,5880.4,7,5,6,6,366.3,7,4
"1239",1,135,0,1,5880.4,7,5,6,6,282,8,3
"1240",1,135,0,3,5880.4,7,5,6,6,600.099999999999,9,2
"1241",1,135,0,2,5880.4,7,5,6,6,38.4000000000002,10,1
"1242",1,136,0,1,2269.2,5,8,3,6,305.86,1,6
"1243",1,136,0,3,2269.2,5,8,3,6,338.01,2,5
"1244",1,136,0,1,2269.2,5,8,3,6,381.99,3,4
"1245",1,136,0,2,2269.2,5,8,3,6,244.1,4,3
"1246",1,136,0,4,2269.2,5,8,3,6,391.8,5,2
"1247",1,136,0,2,2269.2,5,8,3,6,264.1,6,1
"1248",1,137,1,3,2839.2,4,3,6,4,233.8,1,7
"1249",1,137,1,1,2839.2,4,3,6,4,340.1,2,6
"1250",1,137,1,3,2839.2,4,3,6,4,485.81,3,5
"1251",1,137,1,2,2839.2,4,3,6,4,425.9,4,4
"1252",1,137,1,4,2839.2,4,3,6,4,508,5,3
"1253",1,137,1,2,2839.2,4,3,6,4,318,6,2
"1254",1,137,1,1,2839.2,4,3,6,4,93.7999999999999,7,1
"1255",1,138,0,3,4275.9,8,6,5,4,3.80999999999998,1,9
"1256",1,138,0,1,4275.9,8,6,5,4,978.83,2,8
"1257",1,138,0,3,4275.9,8,6,5,4,482,3,7
"1258",1,138,0,4,4275.9,8,6,5,4,132.1,4,6
"1259",1,138,0,2,4275.9,8,6,5,4,453.9,5,5
"1260",1,138,0,4,4275.9,8,6,5,4,478.1,6,4
"1261",1,138,0,2,4275.9,8,6,5,4,740.3,7,3
"1262",1,138,0,3,4275.9,8,6,5,4,358,8,2
"1263",1,138,0,1,4275.9,8,6,5,4,258.4,9,1
"1264",1,139,1,1,2603.5,6,5,4,3,389.84,1,7
"1265",1,139,1,3,2603.5,6,5,4,3,380.06,2,6
"1266",1,139,1,1,2603.5,6,5,4,3,177.96,3,5
"1267",1,139,1,2,2603.5,6,5,4,3,606,4,4
"1268",1,139,1,4,2603.5,6,5,4,3,408.3,5,3
"1269",1,139,1,2,2603.5,6,5,4,3,317.8,6,2
"1270",1,139,1,1,2603.5,6,5,4,3,4,7,1
"1271",1,140,0,1,3477.6,5,7,4,4,431.91,1,8
"1272",1,140,0,3,3477.6,5,7,4,4,422.02,2,7
"1273",1,140,0,1,3477.6,5,7,4,4,199.9,3,6
"1274",1,140,0,2,3477.6,5,7,4,4,428,4,5
"1275",1,140,0,4,3477.6,5,7,4,4,428.1,5,4
"1276",1,140,0,2,3477.6,5,7,4,4,534.6,6,3
"1277",1,140,0,4,3477.6,5,7,4,4,408.1,7,2
"1278",1,140,0,3,3477.6,5,7,4,4,1.99999999999978,8,1
"1279",1,141,1,1,3292.4,6,7,7,2,667.77,1,7
"1280",1,141,1,3,3292.4,6,7,7,2,400.02,2,6
"1281",1,141,1,4,3292.4,6,7,7,2,136,3,5
"1282",1,141,1,2,3292.4,6,7,7,2,388,4,4
"1283",1,141,1,4,3292.4,6,7,7,2,742.7,5,3
"1284",1,141,1,1,3292.4,6,7,7,2,188,6,2
"1285",1,141,1,3,3292.4,6,7,7,2,38.5000000000004,7,1
"1286",1,142,0,1,3251.5,1,6,6,3,581.82,1,7
"1287",1,142,0,3,3251.5,1,6,6,3,740.03,2,6
"1288",1,142,0,4,3251.5,1,6,6,3,226,3,5
"1289",1,142,0,2,3251.5,1,6,6,3,396.1,4,4
"1290",1,142,0,4,3251.5,1,6,6,3,350,5,3
"1291",1,142,0,1,3251.5,1,6,6,3,291.8,6,2
"1292",1,142,0,3,3251.5,1,6,6,3,28.3000000000002,7,1
"1293",1,143,0,1,5218.3,7,5,6,4,590.05,1,9
"1294",1,143,0,3,5218.3,7,5,6,4,273.93,2,8
"1295",1,143,0,2,5218.3,7,5,6,4,401.5,3,7
"1296",1,143,0,4,5218.3,7,5,6,4,249.9,4,6
"1297",1,143,0,1,5218.3,7,5,6,4,629.8,5,5
"1298",1,143,0,3,5218.3,7,5,6,4,421.9,6,4
"1299",1,143,0,1,5218.3,7,5,6,4,4.00000000000045,7,3
"1300",1,143,0,2,5218.3,7,5,6,4,474,8,2
"1301",1,143,0,4,5218.3,7,5,6,4,505.7,9,1
"1302",1,144,0,1,3087.8,6,3,4,7,734.59,1,5
"1303",1,144,0,3,3087.8,6,3,4,7,447.26,2,4
"1304",1,144,0,1,3087.8,6,3,4,7,164,3,3
"1305",1,144,0,3,3087.8,6,3,4,7,136.2,4,2
"1306",1,144,0,4,3087.8,6,3,4,7,249.3,5,1
"1307",1,145,0,1,3881.8,6,6,5,6,382.04,1,8
"1308",1,145,0,3,3881.8,6,6,5,6,545.99,2,7
"1309",1,145,0,1,3881.8,6,6,5,6,494.2,3,6
"1310",1,145,0,2,3881.8,6,6,5,6,334.1,4,5
"1311",1,145,0,4,3881.8,6,6,5,6,485.8,5,4
"1312",1,145,0,3,3881.8,6,6,5,6,2.00000000000022,6,3
"1313",1,145,0,1,3881.8,6,6,5,6,526.1,7,2
"1314",1,145,0,2,3881.8,6,6,5,6,224.1,8,1
"1315",1,146,1,1,5091.7,6,4,5,6,547.77,1,9
"1316",1,146,1,3,5091.7,6,4,5,6,1055.91,2,8
"1317",1,146,1,4,5091.7,6,4,5,6,246,3,7
"1318",1,146,1,2,5091.7,6,4,5,6,811.9,4,6
"1319",1,146,1,4,5091.7,6,4,5,6,538,5,5
"1320",1,146,1,2,5091.7,6,4,5,6,274,6,4
"1321",1,146,1,1,5091.7,6,4,5,6,282.7,7,3
"1322",1,146,1,3,5091.7,6,4,5,6,482,8,2
"1323",1,146,1,1,5091.7,6,4,5,6,230.1,9,1
"1324",1,147,0,1,2771.9,4,4,5,3,1023.92,1,4
"1325",1,147,0,3,2771.9,4,4,5,3,232.2,2,3
"1326",1,147,0,4,2771.9,4,4,5,3,322,3,2
"1327",1,147,0,2,2771.9,4,4,5,3,604.2,4,1
"1328",1,148,0,1,3219.9,5,7,5,4,423.69,1,8
"1329",1,148,0,3,3219.9,5,7,5,4,469.93,2,7
"1330",1,148,0,4,3219.9,5,7,5,4,497.7,3,6
"1331",1,148,0,2,3219.9,5,7,5,4,538.1,4,5
"1332",1,148,0,1,3219.9,5,7,5,4,282.1,5,4
"1333",1,148,0,3,3219.9,5,7,5,4,457.7,6,3
"1334",1,148,0,1,3219.9,5,7,5,4,28,7,2
"1335",1,148,0,2,3219.9,5,7,5,4,11.6000000000001,8,1
"1336",1,149,1,1,10971.2,3,2,8,5,473.83,1,18
"1337",1,149,1,3,10971.2,3,2,8,5,923.96,2,17
"1338",1,149,1,1,10971.2,3,2,8,5,2.60000000000016,3,16
"1339",1,149,1,4,10971.2,3,2,8,5,554.7,4,15
"1340",1,149,1,2,10971.2,3,2,8,5,486,5,14
"1341",1,149,1,4,10971.2,3,2,8,5,545.8,6,13
"1342",1,149,1,2,10971.2,3,2,8,5,253.9,7,12
"1343",1,149,1,1,10971.2,3,2,8,5,12,8,11
"1344",1,149,1,3,10971.2,3,2,8,5,537.1,9,10
"1345",1,149,1,1,10971.2,3,2,8,5,445.8,10,9
"1346",1,149,1,3,10971.2,3,2,8,5,1733.1,11,8
"1347",1,149,1,4,10971.2,3,2,8,5,532,12,7
"1348",1,149,1,2,10971.2,3,2,8,5,668.200000000001,13,6
"1349",1,149,1,4,10971.2,3,2,8,5,293.800000000001,14,5
"1350",1,149,1,3,10971.2,3,2,8,5,359.999999999999,15,4
"1351",1,149,1,1,10971.2,3,2,8,5,940.100000000001,16,3
"1352",1,149,1,2,10971.2,3,2,8,5,266.1,17,2
"1353",1,149,1,4,10971.2,3,2,8,5,922.1,18,1
"1354",1,150,0,1,3849.6,2,5,7,6,1341.95,1,6
"1355",1,150,0,3,3849.6,2,5,7,6,476.1,2,5
"1356",1,150,0,1,3849.6,2,5,7,6,397.7,3,4
"1357",1,150,0,3,3849.6,2,5,7,6,12,4,3
"1358",1,150,0,4,3849.6,2,5,7,6,352,5,2
"1359",1,150,0,2,3849.6,2,5,7,6,678.1,6,1
"1360",1,151,1,1,4621.8,6,4,3,1,471.77,1,8
"1361",1,151,1,3,4621.8,6,4,3,1,462.15,2,7
"1362",1,151,1,1,4621.8,6,4,3,1,300.2,3,6
"1363",1,151,1,2,4621.8,6,4,3,1,255.9,4,5
"1364",1,151,1,4,4621.8,6,4,3,1,502.2,5,4
"1365",1,151,1,3,4621.8,6,4,3,1,5.90000000000002,6,3
"1366",1,151,1,2,4621.8,6,4,3,1,1204.1,7,2
"1367",1,151,1,1,4621.8,6,4,3,1,97.9000000000001,8,1
"1368",1,152,0,1,3964.4,5,6,1,4,1345.99,1,7
"1369",1,152,0,3,3964.4,5,6,1,4,707.9,2,6
"1370",1,152,0,1,3964.4,5,6,1,4,375.9,3,5
"1371",1,152,0,2,3964.4,5,6,1,4,276,4,4
"1372",1,152,0,4,3964.4,5,6,1,4,416.1,5,3
"1373",1,152,0,2,3964.4,5,6,1,4,378,6,2
"1374",1,152,0,1,3964.4,5,6,1,4,129.3,7,1
"1375",1,153,1,1,3141.7,4,6,5,1,331.74,1,8
"1376",1,153,1,2,3141.7,4,6,5,1,281.94,2,7
"1377",1,153,1,1,3141.7,4,6,5,1,417.9,3,6
"1378",1,153,1,3,3141.7,4,6,5,1,564.1,4,5
"1379",1,153,1,1,3141.7,4,6,5,1,196.6,5,4
"1380",1,153,1,2,3141.7,4,6,5,1,322.1,6,3
"1381",1,153,1,4,3141.7,4,6,5,1,436,7,2
"1382",1,153,1,2,3141.7,4,6,5,1,233.8,8,1
"1383",1,154,0,3,4232.6,5,7,6,6,3.992,1,11
"1384",1,154,0,1,4232.6,5,7,6,6,353.97,2,10
"1385",1,154,0,3,4232.6,5,7,6,6,453.95,3,9
"1386",1,154,0,1,4232.6,5,7,6,6,159.9,4,8
"1387",1,154,0,2,4232.6,5,7,6,6,307.9,5,7
"1388",1,154,0,4,4232.6,5,7,6,6,292,6,6
"1389",1,154,0,2,4232.6,5,7,6,6,273.9,7,5
"1390",1,154,0,4,4232.6,5,7,6,6,497.8,8,4
"1391",1,154,0,3,4232.6,5,7,6,6,176,9,3
"1392",1,154,0,1,4232.6,5,7,6,6,534.1,10,2
"1393",1,154,0,2,4232.6,5,7,6,6,574.2,11,1
"1394",1,155,0,1,6693.2,6,7,7,6,903.87,1,8
"1395",1,155,0,3,6693.2,6,7,7,6,399.8,2,7
"1396",1,155,0,4,6693.2,6,7,7,6,395.8,3,6
"1397",1,155,0,3,6693.2,6,7,7,6,340.1,4,5
"1398",1,155,0,1,6693.2,6,7,7,6,516.1,5,4
"1399",1,155,0,3,6693.2,6,7,7,6,861.2,6,3
"1400",1,155,0,4,6693.2,6,7,7,6,757.1,7,2
"1401",1,155,0,2,6693.2,6,7,7,6,799.9,8,1
"1402",1,156,1,3,7275.8,6,6,5,2,12,1,5
"1403",1,156,1,1,7275.8,6,6,5,2,2565.9,2,4
"1404",1,156,1,3,7275.8,6,6,5,2,139.8,3,3
"1405",1,156,1,1,7275.8,6,6,5,2,342.000000000001,4,2
"1406",1,156,1,3,7275.8,6,6,5,2,444,5,1
"1407",1,157,1,1,2854.6,7,5,5,5,474.55,1,6
"1408",1,157,1,3,2854.6,7,5,5,5,626.01,2,5
"1409",1,157,1,1,2854.6,7,5,5,5,14.1,3,4
"1410",1,157,1,2,2854.6,7,5,5,5,271.9,4,3
"1411",1,157,1,4,2854.6,7,5,5,5,444.2,5,2
"1412",1,157,1,2,2854.6,7,5,5,5,743.1,6,1
"1413",1,158,0,1,4964.2,5,6,3,7,417.8,1,10
"1414",1,158,0,3,4964.2,5,6,3,7,234,2,9
"1415",1,158,0,4,4964.2,5,6,3,7,145.7,3,8
"1416",1,158,0,2,4964.2,5,6,3,7,334,4,7
"1417",1,158,0,1,4964.2,5,6,3,7,399.9,5,6
"1418",1,158,0,3,4964.2,5,6,3,7,378.1,6,5
"1419",1,158,0,1,4964.2,5,6,3,7,756.1,7,4
"1420",1,158,0,3,4964.2,5,6,3,7,9.90000000000002,8,3
"1421",1,158,0,1,4964.2,5,6,3,7,1.99999999999978,9,2
"1422",1,158,0,3,4964.2,5,6,3,7,2.09999999999955,10,1
"1423",1,159,1,1,11486,5,7,7,6,611.45,1,19
"1424",1,159,1,3,11486,5,7,7,6,229.89,2,18
"1425",1,159,1,2,11486,5,7,7,6,662.4,3,17
"1426",1,159,1,4,11486,5,7,7,6,194.5,4,16
"1427",1,159,1,2,11486,5,7,7,6,282,5,15
"1428",1,159,1,4,11486,5,7,7,6,423.9,6,14
"1429",1,159,1,3,11486,5,7,7,6,282.2,7,13
"1430",1,159,1,1,11486,5,7,7,6,304.5,8,12
"1431",1,159,1,3,11486,5,7,7,6,34.0999999999996,9,11
"1432",1,159,1,1,11486,5,7,7,6,194.6,10,10
"1433",1,159,1,3,11486,5,7,7,6,248,11,9
"1434",1,159,1,4,11486,5,7,7,6,154,12,8
"1435",1,159,1,2,11486,5,7,7,6,470,13,7
"1436",1,159,1,4,11486,5,7,7,6,540,14,6
"1437",1,159,1,2,11486,5,7,7,6,356.100000000001,15,5
"1438",1,159,1,4,11486,5,7,7,6,426.8,16,4
"1439",1,159,1,3,11486,5,7,7,6,9.99999999999979,17,3
"1440",1,159,1,1,11486,5,7,7,6,2966.2,18,2
"1441",1,159,1,3,11486,5,7,7,6,282.1,19,1
"1442",1,160,0,1,2015.6,4,3,4,6,497.88,1,5
"1443",1,160,0,3,2015.6,4,3,4,6,461.92,2,4
"1444",1,160,0,4,2015.6,4,3,4,6,161.9,3,3
"1445",1,160,0,2,2015.6,4,3,4,6,450,4,2
"1446",1,160,0,4,2015.6,4,3,4,6,75.8000000000001,5,1
"1447",1,161,1,1,8199.7,2,3,6,6,393.92,1,14
"1448",1,161,1,3,8199.7,2,3,6,6,342.09,2,13
"1449",1,161,1,1,8199.7,2,3,6,6,128.5,3,12
"1450",1,161,1,3,8199.7,2,3,6,6,219.9,4,11
"1451",1,161,1,1,8199.7,2,3,6,6,856,5,10
"1452",1,161,1,3,8199.7,2,3,6,6,499.9,6,9
"1453",1,161,1,4,8199.7,2,3,6,6,139.9,7,8
"1454",1,161,1,2,8199.7,2,3,6,6,430.1,8,7
"1455",1,161,1,4,8199.7,2,3,6,6,522,9,6
"1456",1,161,1,3,8199.7,2,3,6,6,272.1,10,5
"1457",1,161,1,1,8199.7,2,3,6,6,821.899999999999,11,4
"1458",1,161,1,3,8199.7,2,3,6,6,11.9999999999996,12,3
"1459",1,161,1,2,8199.7,2,3,6,6,135.9,13,2
"1460",1,161,1,4,8199.7,2,3,6,6,569.9,14,1
"1461",1,162,0,1,3729.1,7,3,5,3,380.84,1,6
"1462",1,162,0,3,3729.1,7,3,5,3,434.07,2,5
"1463",1,162,0,1,3729.1,7,3,5,3,122,3,4
"1464",1,162,0,2,3729.1,7,3,5,3,261.1,4,3
"1465",1,162,0,1,3729.1,7,3,5,3,300,5,2
"1466",1,162,0,3,3729.1,7,3,5,3,502,6,1
"1467",1,163,1,1,10202.6,4,8,5,4,578.15,1,14
"1468",1,163,1,3,10202.6,4,8,5,4,500.01,2,13
"1469",1,163,1,1,10202.6,4,8,5,4,1122.1,3,12
"1470",1,163,1,3,10202.6,4,8,5,4,482,4,11
"1471",1,163,1,4,10202.6,4,8,5,4,412.1,5,10
"1472",1,163,1,2,10202.6,4,8,5,4,444,6,9
"1473",1,163,1,4,10202.6,4,8,5,4,294,7,8
"1474",1,163,1,3,10202.6,4,8,5,4,75.9999999999996,8,7
"1475",1,163,1,1,10202.6,4,8,5,4,362.2,9,6
"1476",1,163,1,3,10202.6,4,8,5,4,359.900000000001,10,5
"1477",1,163,1,1,10202.6,4,8,5,4,563.899999999999,11,4
"1478",1,163,1,2,10202.6,4,8,5,4,1064.1,12,3
"1479",1,163,1,4,10202.6,4,8,5,4,1015.9,13,2
"1480",1,163,1,3,10202.6,4,8,5,4,547.800000000001,14,1
"1481",1,164,0,1,2818.8,4,6,6,7,417.89,1,5
"1482",1,164,0,3,2818.8,4,6,6,7,396.03,2,4
"1483",1,164,0,4,2818.8,4,6,6,7,137,3,3
"1484",1,164,0,3,2818.8,4,6,6,7,326,4,2
"1485",1,164,0,1,2818.8,4,6,6,7,211.9,5,1
"1486",1,165,0,1,7770.1,3,6,5,6,475.91,1,12
"1487",1,165,0,3,7770.1,3,6,5,6,501.99,2,11
"1488",1,165,0,2,7770.1,3,6,5,6,598,3,10
"1489",1,165,0,4,7770.1,3,6,5,6,1274.1,4,9
"1490",1,165,0,3,7770.1,3,6,5,6,10.0000000000002,5,8
"1491",1,165,0,1,7770.1,3,6,5,6,353.5,6,7
"1492",1,165,0,3,7770.1,3,6,5,6,34.1000000000005,7,6
"1493",1,165,0,2,7770.1,3,6,5,6,17.9999999999998,8,5
"1494",1,165,0,3,7770.1,3,6,5,6,106.7,9,4
"1495",1,165,0,4,7770.1,3,6,5,6,345.9,10,3
"1496",1,165,0,1,7770.1,3,6,5,6,385.3,11,2
"1497",1,165,0,2,7770.1,3,6,5,6,147.8,12,1
"1498",1,166,0,1,4149.5,5,4,2,7,1074.846,1,10
"1499",1,166,0,3,4149.5,5,4,2,7,591,2,9
"1500",1,166,0,2,4149.5,5,4,2,7,2.19999999999998,3,8
"1501",1,166,0,1,4149.5,5,4,2,7,11.9000000000002,4,7
"1502",1,166,0,4,4149.5,5,4,2,7,25.7000000000001,5,6
"1503",1,166,0,2,4149.5,5,4,2,7,2.00000000000022,6,5
"1504",1,166,0,3,4149.5,5,4,2,7,4,7,4
"1505",1,166,0,1,4149.5,5,4,2,7,494.1,8,3
"1506",1,166,0,3,4149.5,5,4,2,7,580,9,2
"1507",1,166,0,4,4149.5,5,4,2,7,9.90000000000002,10,1
"1508",1,167,0,3,6867.5,6,4,6,5,7.98,1,7
"1509",1,167,0,1,6867.5,6,4,6,5,405.893,2,6
"1510",1,167,0,3,6867.5,6,4,6,5,424.13,3,5
"1511",1,167,0,1,6867.5,6,4,6,5,594.1,4,4
"1512",1,167,0,3,6867.5,6,4,6,5,1.69999999999981,5,3
"1513",1,167,0,1,6867.5,6,4,6,5,426.1,6,2
"1514",1,167,0,3,6867.5,6,4,6,5,1463.6,7,1
"1515",1,168,1,1,4671.2,7,4,5,4,108.877,1,13
"1516",1,168,1,2,4671.2,7,4,5,4,4.01000000000001,2,12
"1517",1,168,1,1,4671.2,7,4,5,4,481.93,3,11
"1518",1,168,1,3,4671.2,7,4,5,4,451.98,4,10
"1519",1,168,1,1,4671.2,7,4,5,4,4,5,9
"1520",1,168,1,4,4671.2,7,4,5,4,6.90000000000013,6,8
"1521",1,168,1,2,4671.2,7,4,5,4,466,7,7
"1522",1,168,1,4,4671.2,7,4,5,4,782.1,8,6
"1523",1,168,1,1,4671.2,7,4,5,4,318,9,5
"1524",1,168,1,3,4671.2,7,4,5,4,436,10,4
"1525",1,168,1,1,4671.2,7,4,5,4,419.9,11,3
"1526",1,168,1,2,4671.2,7,4,5,4,494,12,2
"1527",1,168,1,4,4671.2,7,4,5,4,185.9,13,1
"1528",1,169,1,1,1928.9,6,5,6,5,444.48,1,5
"1529",1,169,1,3,1928.9,6,5,6,5,440.09,2,4
"1530",1,169,1,1,1928.9,6,5,6,5,1.90000000000001,3,3
"1531",1,169,1,2,1928.9,6,5,6,5,256.1,4,2
"1532",1,169,1,4,1928.9,6,5,6,5,475.5,5,1
"1533",1,170,1,3,2691.7,7,2,6,4,1.975,1,3
"1534",1,170,1,1,2691.7,7,2,6,4,1207.94,2,2
"1535",1,170,1,3,2691.7,7,2,6,4,401.4,3,1
"1536",1,171,0,1,5961.2,4,5,4,6,375.84,1,10
"1537",1,171,0,3,5961.2,4,5,4,6,447.85,2,9
"1538",1,171,0,1,5961.2,4,5,4,6,176,3,8
"1539",1,171,0,2,5961.2,4,5,4,6,278.1,4,7
"1540",1,171,0,4,5961.2,4,5,4,6,714,5,6
"1541",1,171,0,2,5961.2,4,5,4,6,457.9,6,5
"1542",1,171,0,1,5961.2,4,5,4,6,469.9,7,4
"1543",1,171,0,3,5961.2,4,5,4,6,1370,8,3
"1544",1,171,0,1,5961.2,4,5,4,6,705.7,9,2
"1545",1,171,0,2,5961.2,4,5,4,6,343.599999999999,10,1
"1546",1,172,1,1,4456.5,4,4,2,3,363.81,1,6
"1547",1,172,1,3,4456.5,4,4,2,3,404.02,2,5
"1548",1,172,1,2,4456.5,4,4,2,3,295,3,4
"1549",1,172,1,4,4456.5,4,4,2,3,299.8,4,3
"1550",1,172,1,1,4456.5,4,4,2,3,337.6,5,2
"1551",1,172,1,3,4456.5,4,4,2,3,653.5,6,1
"1552",1,173,0,1,8089.2,6,7,5,3,7.70000000000004,1,8
"1553",1,173,0,3,8089.2,6,7,5,3,348,2,7
"1554",1,173,0,2,8089.2,6,7,5,3,433.2,3,6
"1555",1,173,0,4,8089.2,6,7,5,3,216,4,5
"1556",1,173,0,3,8089.2,6,7,5,3,194,5,4
"1557",1,173,0,1,8089.2,6,7,5,3,1.90000000000001,6,3
"1558",1,173,0,3,8089.2,6,7,5,3,322,7,2
"1559",1,173,0,2,8089.2,6,7,5,3,678.6,8,1
"1560",1,174,0,1,4715.5,6,6,5,5,767.796,1,4
"1561",1,174,0,3,4715.5,6,6,5,5,535.84,2,3
"1562",1,174,0,1,4715.5,6,6,5,5,15.6000000000001,3,2
"1563",1,174,0,3,4715.5,6,6,5,5,5.79999999999981,4,1
"1564",1,175,0,1,3495.5,5,6,6,7,351.9,1,6
"1565",1,175,0,3,3495.5,5,6,6,7,208.12,2,5
"1566",1,175,0,1,3495.5,5,6,6,7,395.8,3,4
"1567",1,175,0,2,3495.5,5,6,6,7,19.0000000000001,4,3
"1568",1,175,0,4,3495.5,5,6,6,7,296.8,5,2
"1569",1,175,0,1,3495.5,5,6,6,7,167.4,6,1
"1570",1,176,0,1,9704.8,4,6,4,4,432.99,1,9
"1571",1,176,0,3,9704.8,4,6,4,4,9.97000000000003,2,8
"1572",1,176,0,4,9704.8,4,6,4,4,312,3,7
"1573",1,176,0,2,9704.8,4,6,4,4,764,4,6
"1574",1,176,0,4,9704.8,4,6,4,4,146.1,5,5
"1575",1,176,0,1,9704.8,4,6,4,4,578.1,6,4
"1576",1,176,0,3,9704.8,4,6,4,4,612,7,3
"1577",1,176,0,2,9704.8,4,6,4,4,1365.2,8,2
"1578",1,176,0,1,9704.8,4,6,4,4,1682.5,9,1
"1579",1,177,0,1,3040.6,4,4,4,5,441.98,1,6
"1580",1,177,0,3,3040.6,4,4,4,5,964.14,2,5
"1581",1,177,0,1,3040.6,4,4,4,5,406,3,4
"1582",1,177,0,2,3040.6,4,4,4,5,230.3,4,3
"1583",1,177,0,4,3040.6,4,4,4,5,427.8,5,2
"1584",1,177,0,2,3040.6,4,4,4,5,297,6,1
"1585",1,178,1,1,4068.9,6,5,7,4,238.34,1,13
"1586",1,178,1,3,4068.9,6,5,7,4,1.87000000000004,2,12
"1587",1,178,1,1,4068.9,6,5,7,4,84.9099999999999,3,11
"1588",1,178,1,3,4068.9,6,5,7,4,543.97,4,10
"1589",1,178,1,1,4068.9,6,5,7,4,384.1,5,9
"1590",1,178,1,3,4068.9,6,5,7,4,220,6,8
"1591",1,178,1,2,4068.9,6,5,7,4,343.9,7,7
"1592",1,178,1,4,4068.9,6,5,7,4,550.1,8,6
"1593",1,178,1,2,4068.9,6,5,7,4,146.1,9,5
"1594",1,178,1,1,4068.9,6,5,7,4,380,10,4
"1595",1,178,1,3,4068.9,6,5,7,4,6.00000000000023,11,3
"1596",1,178,1,2,4068.9,6,5,7,4,414.2,12,2
"1597",1,178,1,4,4068.9,6,5,7,4,63.2999999999999,13,1
"1598",1,179,0,1,6231.8,5,4,6,5,853.79,1,12
"1599",1,179,0,3,6231.8,5,4,6,5,1.80000000000002,2,11
"1600",1,179,0,1,6231.8,5,4,6,5,1056,3,10
"1601",1,179,0,3,6231.8,5,4,6,5,378.5,4,9
"1602",1,179,0,1,6231.8,5,4,6,5,450.1,5,8
"1603",1,179,0,3,6231.8,5,4,6,5,244.1,6,7
"1604",1,179,0,2,6231.8,5,4,6,5,370,7,6
"1605",1,179,0,4,6231.8,5,4,6,5,479.9,8,5
"1606",1,179,0,3,6231.8,5,4,6,5,367.900000000001,9,4
"1607",1,179,0,1,6231.8,5,4,6,5,356.000000000001,10,3
"1608",1,179,0,3,6231.8,5,4,6,5,238.6,11,2
"1609",1,179,0,2,6231.8,5,4,6,5,771.4,12,1
"1610",1,180,1,1,2580.6,8,6,6,5,385.93,1,6
"1611",1,180,1,3,2580.6,8,6,6,5,336.05,2,5
"1612",1,180,1,1,2580.6,8,6,6,5,346.07,3,4
"1613",1,180,1,2,2580.6,8,6,6,5,246,4,3
"1614",1,180,1,4,2580.6,8,6,6,5,447.9,5,2
"1615",1,180,1,2,2580.6,8,6,6,5,497.5,6,1
"1616",1,181,1,1,4017.8,6,7,6,6,431.92,1,8
"1617",1,181,1,3,4017.8,6,7,6,6,650.07,2,7
"1618",1,181,1,1,4017.8,6,7,6,6,902,3,6
"1619",1,181,1,3,4017.8,6,7,6,6,10.0000000000002,4,5
"1620",1,181,1,4,4017.8,6,7,6,6,300,5,4
"1621",1,181,1,2,4017.8,6,7,6,6,422.2,6,3
"1622",1,181,1,4,4017.8,6,7,6,6,403.9,7,2
"1623",1,181,1,1,4017.8,6,7,6,6,27.3000000000003,8,1
"1624",1,182,1,1,1721.5,7,6,7,6,467.55,1,4
"1625",1,182,1,3,1721.5,7,6,7,6,9.97999999999999,2,3
"1626",1,182,1,4,1721.5,7,6,7,6,210.1,3,2
"1627",1,182,1,2,1721.5,7,6,7,6,413,4,1
"1628",1,183,1,1,3698.5,5,4,6,3,323.82,1,10
"1629",1,183,1,3,3698.5,5,4,6,3,389.95,2,9
"1630",1,183,1,1,3698.5,5,4,6,3,312.09,3,8
"1631",1,183,1,3,3698.5,5,4,6,3,257.9,4,7
"1632",1,183,1,1,3698.5,5,4,6,3,220,5,6
"1633",1,183,1,3,3698.5,5,4,6,3,640.7,6,5
"1634",1,183,1,1,3698.5,5,4,6,3,262,7,4
"1635",1,183,1,2,3698.5,5,4,6,3,321.3,8,3
"1636",1,183,1,4,3698.5,5,4,6,3,337.2,9,2
"1637",1,183,1,2,3698.5,5,4,6,3,254,10,1
"1638",1,184,0,1,4423.9,5,5,4,7,391.9,1,10
"1639",1,184,0,3,4423.9,5,5,4,7,432.07,2,9
"1640",1,184,0,2,4423.9,5,5,4,7,108,3,8
"1641",1,184,0,4,4423.9,5,5,4,7,507.8,4,7
"1642",1,184,0,2,4423.9,5,5,4,7,136.1,5,6
"1643",1,184,0,1,4423.9,5,5,4,7,324,6,5
"1644",1,184,0,3,4423.9,5,5,4,7,478.1,7,4
"1645",1,184,0,1,4423.9,5,5,4,7,101.8,8,3
"1646",1,184,0,2,4423.9,5,5,4,7,564.2,9,2
"1647",1,184,0,4,4423.9,5,5,4,7,319.199999999999,10,1
"1648",1,185,1,1,12683.4,4,7,6,1,657.75,1,24
"1649",1,185,1,3,12683.4,4,7,6,1,191.88,2,23
"1650",1,185,1,2,12683.4,4,7,6,1,303.8,3,22
"1651",1,185,1,4,12683.4,4,7,6,1,1008,4,21
"1652",1,185,1,2,12683.4,4,7,6,1,348,5,20
"1653",1,185,1,4,12683.4,4,7,6,1,373.9,6,19
"1654",1,185,1,3,12683.4,4,7,6,1,4,7,18
"1655",1,185,1,1,12683.4,4,7,6,1,669.9,8,17
"1656",1,185,1,3,12683.4,4,7,6,1,1798.6,9,16
"1657",1,185,1,1,12683.4,4,7,6,1,252,10,15
"1658",1,185,1,3,12683.4,4,7,6,1,316,11,14
"1659",1,185,1,2,12683.4,4,7,6,1,12.2999999999998,12,13
"1660",1,185,1,1,12683.4,4,7,6,1,8.00000000000001,13,12
"1661",1,185,1,2,12683.4,4,7,6,1,2.09999999999955,14,11
"1662",1,185,1,1,12683.4,4,7,6,1,12.2,15,10
"1663",1,185,1,2,12683.4,4,7,6,1,2.00000000000067,16,9
"1664",1,185,1,1,12683.4,4,7,6,1,444.1,17,8
"1665",1,185,1,2,12683.4,4,7,6,1,668.1,18,7
"1666",1,185,1,1,12683.4,4,7,6,1,976.000000000001,19,6
"1667",1,185,1,2,12683.4,4,7,6,1,443.899999999999,20,5
"1668",1,185,1,4,12683.4,4,7,6,1,828.200000000001,21,4
"1669",1,185,1,1,12683.4,4,7,6,1,1.99999999999889,22,3
"1670",1,185,1,2,12683.4,4,7,6,1,451.1,23,2
"1671",1,185,1,3,12683.4,4,7,6,1,429.9,24,1
"1672",1,186,0,1,8211.6,1,4,4,4,1453.882,1,6
"1673",1,186,0,3,8211.6,1,4,4,4,81.9000000000001,2,5
"1674",1,186,0,1,8211.6,1,4,4,4,1224.2,3,4
"1675",1,186,0,3,8211.6,1,4,4,4,1738.6,4,3
"1676",1,186,0,1,8211.6,1,4,4,4,1.90000000000001,5,2
"1677",1,186,0,3,8211.6,1,4,4,4,1.79999999999936,6,1
"1678",1,187,0,1,3071,6,6,6,7,577.402,1,2
"1679",1,187,0,3,3071,6,6,6,7,279.81,2,1
"1680",1,188,0,1,2623.7,2,4,4,4,181.41,1,5
"1681",1,188,0,3,2623.7,2,4,4,4,500.48,2,4
"1682",1,188,0,2,2623.7,2,4,4,4,264,3,3
"1683",1,188,0,4,2623.7,2,4,4,4,342.3,4,2
"1684",1,188,0,2,2623.7,2,4,4,4,695.1,5,1
"1685",1,189,1,1,4716.3,6,4,4,5,1.88999999999995,1,10
"1686",1,189,1,3,4716.3,6,4,4,5,507.92,2,9
"1687",1,189,1,1,4716.3,6,4,4,5,319.9,3,8
"1688",1,189,1,2,4716.3,6,4,4,5,284.8,4,7
"1689",1,189,1,4,4716.3,6,4,4,5,443.3,5,6
"1690",1,189,1,2,4716.3,6,4,4,5,143.9,6,5
"1691",1,189,1,1,4716.3,6,4,4,5,368,7,4
"1692",1,189,1,3,4716.3,6,4,4,5,564,8,3
"1693",1,189,1,1,4716.3,6,4,4,5,461.9,9,2
"1694",1,189,1,2,4716.3,6,4,4,5,412.9,10,1
"1695",1,190,1,3,2279.2,7,5,4,6,1.89,1,7
"1696",1,190,1,1,2279.2,7,5,4,6,566.07,2,6
"1697",1,190,1,3,2279.2,7,5,4,6,423.84,3,5
"1698",1,190,1,2,2279.2,7,5,4,6,332.1,4,4
"1699",1,190,1,4,2279.2,7,5,4,6,368,5,3
"1700",1,190,1,3,2279.2,7,5,4,6,156,6,2
"1701",1,190,1,1,2279.2,7,5,4,6,65.9999999999998,7,1
"1702",1,191,1,1,9537.9,6,6,6,4,1097.86,1,13
"1703",1,191,1,3,9537.9,6,6,6,4,541.9,2,12
"1704",1,191,1,4,9537.9,6,6,6,4,272.1,3,11
"1705",1,191,1,2,9537.9,6,6,6,4,611.9,4,10
"1706",1,191,1,4,9537.9,6,6,6,4,490.2,5,9
"1707",1,191,1,1,9537.9,6,6,6,4,364.2,6,8
"1708",1,191,1,3,9537.9,6,6,6,4,1011.9,7,7
"1709",1,191,1,1,9537.9,6,6,6,4,645.9,8,6
"1710",1,191,1,2,9537.9,6,6,6,4,496.1,9,5
"1711",1,191,1,4,9537.9,6,6,6,4,601.9,10,4
"1712",1,191,1,2,9537.9,6,6,6,4,1065.4,11,3
"1713",1,191,1,3,9537.9,6,6,6,4,719.900000000001,12,2
"1714",1,191,1,1,9537.9,6,6,6,4,949.7,13,1
"1715",1,192,1,1,3162.8,6,8,4,5,419.89,1,10
"1716",1,192,1,3,3162.8,6,8,4,5,420.04,2,9
"1717",1,192,1,2,3162.8,6,8,4,5,263.9,3,8
"1718",1,192,1,3,3162.8,6,8,4,5,6.09999999999999,4,7
"1719",1,192,1,4,3162.8,6,8,4,5,464,5,6
"1720",1,192,1,2,3162.8,6,8,4,5,257.9,6,5
"1721",1,192,1,4,3162.8,6,8,4,5,1.99999999999978,7,4
"1722",1,192,1,3,3162.8,6,8,4,5,2.00000000000022,8,3
"1723",1,192,1,1,3162.8,6,8,4,5,314.1,9,2
"1724",1,192,1,3,3162.8,6,8,4,5,250.1,10,1
"1725",1,193,0,1,2960.2,2,6,4,7,523.78,1,10
"1726",1,193,0,3,2960.2,2,6,4,7,467.71,2,9
"1727",1,193,0,1,2960.2,2,6,4,7,63.9000000000001,3,8
"1728",1,193,0,2,2960.2,2,6,4,7,2,4,7
"1729",1,193,0,1,2960.2,2,6,4,7,178,5,6
"1730",1,193,0,3,2960.2,2,6,4,7,329.9,6,5
"1731",1,193,0,4,2960.2,2,6,4,7,214.4,7,4
"1732",1,193,0,2,2960.2,2,6,4,7,311.9,8,3
"1733",1,193,0,4,2960.2,2,6,4,7,324.2,9,2
"1734",1,193,0,2,2960.2,2,6,4,7,63.2000000000001,10,1
"1735",1,194,1,3,4918.3,5,6,6,4,3.93999999999997,1,11
"1736",1,194,1,1,4918.3,5,6,6,4,729.87,2,10
"1737",1,194,1,3,4918.3,5,6,6,4,112,3,9
"1738",1,194,1,1,4918.3,5,6,6,4,1057.9,4,8
"1739",1,194,1,3,4918.3,5,6,6,4,664.1,5,7
"1740",1,194,1,1,4918.3,5,6,6,4,282.1,6,6
"1741",1,194,1,2,4918.3,5,6,6,4,260.1,7,5
"1742",1,194,1,4,4918.3,5,6,6,4,410.099999999999,8,4
"1743",1,194,1,2,4918.3,5,6,6,4,285.8,9,3
"1744",1,194,1,1,4918.3,5,6,6,4,286.1,10,2
"1745",1,194,1,3,4918.3,5,6,6,4,249.1,11,1
"1746",1,195,1,1,3231,5,4,6,2,551.86,1,7
"1747",1,195,1,3,3231,5,4,6,2,417.78,2,6
"1748",1,195,1,4,3231,5,4,6,2,247.9,3,5
"1749",1,195,1,2,3231,5,4,6,2,495.9,4,4
"1750",1,195,1,4,3231,5,4,6,2,354.1,5,3
"1751",1,195,1,1,3231,5,4,6,2,460.1,6,2
"1752",1,195,1,2,3231,5,4,6,2,357,7,1
"1753",1,196,0,1,2593.8,2,8,4,6,756.19,1,6
"1754",1,196,0,3,2593.8,2,8,4,6,477.95,2,5
"1755",1,196,0,2,2593.8,2,8,4,6,250,3,4
"1756",1,196,0,4,2593.8,2,8,4,6,363.7,4,3
"1757",1,196,0,2,2593.8,2,8,4,6,360.2,5,2
"1758",1,196,0,1,2593.8,2,8,4,6,97.0999999999997,6,1
"1759",1,197,0,1,6662.5,4,5,4,4,359.89,1,13
"1760",1,197,0,3,6662.5,4,5,4,4,283.84,2,12
"1761",1,197,0,1,6662.5,4,5,4,4,50.1699999999999,3,11
"1762",1,197,0,2,6662.5,4,5,4,4,390.07,4,10
"1763",1,197,0,4,6662.5,4,5,4,4,1426.1,5,9
"1764",1,197,0,2,6662.5,4,5,4,4,1075.9,6,8
"1765",1,197,0,4,6662.5,4,5,4,4,525.9,7,7
"1766",1,197,0,3,6662.5,4,5,4,4,198,8,6
"1767",1,197,0,1,6662.5,4,5,4,4,411.799999999999,9,5
"1768",1,197,0,3,6662.5,4,5,4,4,364.1,10,4
"1769",1,197,0,1,6662.5,4,5,4,4,328,11,3
"1770",1,197,0,2,6662.5,4,5,4,4,364.100000000001,12,2
"1771",1,197,0,4,6662.5,4,5,4,4,455.2,13,1
"1772",1,198,1,1,7121.7,6,6,5,6,665.95,1,12
"1773",1,198,1,3,7121.7,6,6,5,6,713.97,2,11
"1774",1,198,1,2,7121.7,6,6,5,6,266.1,3,10
"1775",1,198,1,4,7121.7,6,6,5,6,430.1,4,9
"1776",1,198,1,2,7121.7,6,6,5,6,391.8,5,8
"1777",1,198,1,4,7121.7,6,6,5,6,504,6,7
"1778",1,198,1,1,7121.7,6,6,5,6,475.8,7,6
"1779",1,198,1,3,7121.7,6,6,5,6,10.0000000000002,8,5
"1780",1,198,1,2,7121.7,6,6,5,6,502.000000000001,9,4
"1781",1,198,1,4,7121.7,6,6,5,6,658.3,10,3
"1782",1,198,1,3,7121.7,6,6,5,6,10.0999999999996,11,2
"1783",1,198,1,1,7121.7,6,6,5,6,514.5,12,1
"1784",1,199,0,1,4941.2,4,5,4,2,2264.74,1,5
"1785",1,199,0,4,4941.2,4,5,4,2,150,2,4
"1786",1,199,0,3,4941.2,4,5,4,2,2.00000000000022,3,3
"1787",1,199,0,1,4941.2,4,5,4,2,227.200000000001,4,2
"1788",1,199,0,2,4941.2,4,5,4,2,571.1,5,1
"1789",1,200,0,3,7817.1,6,8,5,5,55.803,1,16
"1790",1,200,0,1,7817.1,6,8,5,5,374.12,2,15
"1791",1,200,0,3,7817.1,6,8,5,5,373.15,3,14
"1792",1,200,0,2,7817.1,6,8,5,5,569.3,4,13
"1793",1,200,0,1,7817.1,6,8,5,5,784,5,12
"1794",1,200,0,3,7817.1,6,8,5,5,283.9,6,11
"1795",1,200,0,1,7817.1,6,8,5,5,2.00000000000067,7,10
"1796",1,200,0,3,7817.1,6,8,5,5,73.7999999999994,8,9
"1797",1,200,0,1,7817.1,6,8,5,5,110,9,8
"1798",1,200,0,3,7817.1,6,8,5,5,12.4000000000004,10,7
"1799",1,200,0,1,7817.1,6,8,5,5,1.79999999999936,11,6
"1800",1,200,0,3,7817.1,6,8,5,5,1.99999999999978,12,5
"1801",1,200,0,1,7817.1,6,8,5,5,570.2,13,4
"1802",1,200,0,3,7817.1,6,8,5,5,360,14,3
"1803",1,200,0,4,7817.1,6,8,5,5,2.00000000000067,15,2
"1804",1,200,0,3,7817.1,6,8,5,5,224,16,1
"1805",2,1,0,1,1547.9,8,4,2,9,223.79,1,5
"1806",2,1,0,3,1547.9,8,4,2,9,230.14,2,4
"1807",2,1,0,4,1547.9,8,4,2,9,245.85,3,3
"1808",2,1,0,2,1547.9,8,4,2,9,522.28,4,2
"1809",2,1,0,1,1547.9,8,4,2,9,51.1000000000001,5,1
"1810",2,3,1,1,1308.6,2,3,8,1,283.82,1,4
"1811",2,3,1,3,1308.6,2,3,8,1,179.89,2,3
"1812",2,3,1,4,1308.6,2,3,8,1,174.01,3,2
"1813",2,3,1,2,1308.6,2,3,8,1,404.53,4,1
"1814",2,4,0,2,1495.4,6,2,7,10,182,1,3
"1815",2,4,0,4,1495.4,6,2,7,10,262,2,2
"1816",2,4,0,3,1495.4,6,2,7,10,2.01000000000007,3,1
"1817",2,5,0,1,1673.2,3,2,1,10,354.15,1,5
"1818",2,5,0,2,1673.2,3,2,1,10,245.15,2,4
"1819",2,5,0,4,1673.2,3,2,1,10,7.8999999999998,3,3
"1820",2,5,0,3,1673.2,3,2,1,10,10.9000000000001,4,2
"1821",2,5,0,2,1673.2,3,2,1,10,111,5,1
"1822",2,6,0,3,1364.1,2,1,1,3,119.9,1,4
"1823",2,6,0,4,1364.1,2,1,1,3,246.1,2,3
"1824",2,6,0,2,1364.1,2,1,1,3,335.96,3,2
"1825",2,6,0,1,1364.1,2,1,1,3,9.10000000000011,4,1
"1826",2,7,0,1,1239.6,3,8,1,2,153.67,1,4
"1827",2,7,0,2,1239.6,3,8,1,2,176.12,2,3
"1828",2,7,0,4,1239.6,3,8,1,2,219.93,3,2
"1829",2,7,0,3,1239.6,3,8,1,2,378.17,4,1
"1830",2,8,0,1,1231.6,2,3,1,1,106.13,1,4
"1831",2,8,0,2,1231.6,2,3,1,1,170,2,3
"1832",2,8,0,4,1231.6,2,3,1,1,220.15,3,2
"1833",2,8,0,3,1231.6,2,3,1,1,484.15,4,1
"1834",2,9,0,4,1222.9,1,8,3,1,182.27,1,2
"1835",2,9,0,3,1222.9,1,8,3,1,347.65,2,1
"1836",2,10,0,1,1524.2,3,1,1,8,235.84,1,4
"1837",2,10,0,3,1524.2,3,1,1,8,173.91,2,3
"1838",2,10,0,2,1524.2,3,1,1,8,348.09,3,2
"1839",2,10,0,4,1524.2,3,1,1,8,382.7,4,1
"1840",2,11,1,4,1516.3,4,1,6,3,132.97,1,4
"1841",2,11,1,2,1516.3,4,1,6,3,233.85,2,3
"1842",2,11,1,1,1516.3,4,1,6,3,249.97,3,2
"1843",2,11,1,3,1516.3,4,1,6,3,192.1,4,1
"1844",2,12,0,2,2110.7,2,2,4,9,112.6,1,3
"1845",2,12,0,3,2110.7,2,2,4,9,151.8,2,2
"1846",2,12,0,1,2110.7,2,2,4,9,297,3,1
"1847",2,13,0,4,1528.8,3,2,8,1,238.88,1,3
"1848",2,13,0,2,1528.8,3,2,8,1,305.9,2,2
"1849",2,13,0,1,1528.8,3,2,8,1,242.23,3,1
"1850",2,14,0,4,2354.4,3,1,1,3,213.1,1,4
"1851",2,14,0,3,2354.4,3,1,1,3,232.99,2,3
"1852",2,14,0,1,2354.4,3,1,1,3,564,3,2
"1853",2,14,0,2,2354.4,3,1,1,3,523.8,4,1
"1854",2,15,1,2,2131.7,8,8,3,2,151,1,4
"1855",2,15,1,1,2131.7,8,8,3,2,176,2,3
"1856",2,15,1,3,2131.7,8,8,3,2,418.3,3,2
"1857",2,15,1,4,2131.7,8,8,3,2,158.4,4,1
"1858",2,16,1,1,1474.5,1,1,3,1,299.58,1,5
"1859",2,16,1,3,1474.5,1,1,3,1,9.97000000000003,2,4
"1860",2,16,1,4,1474.5,1,1,3,1,169.89,3,3
"1861",2,16,1,2,1474.5,1,1,3,1,411.96,4,2
"1862",2,16,1,1,1474.5,1,1,3,1,53.5999999999999,5,1
"1863",2,17,1,1,1545,3,4,8,3,208.02,1,4
"1864",2,17,1,2,1545,3,4,8,3,239.93,2,3
"1865",2,17,1,3,1545,3,4,8,3,325.95,3,2
"1866",2,17,1,4,1545,3,4,8,3,373.7,4,1
"1867",2,18,1,1,1959.1,4,1,3,2,153.94,1,6
"1868",2,18,1,2,1959.1,4,1,3,2,264.32,2,5
"1869",2,18,1,3,1959.1,4,1,3,2,235.94,3,4
"1870",2,18,1,4,1959.1,4,1,3,2,311.1,4,3
"1871",2,18,1,1,1959.1,4,1,3,2,420.1,5,2
"1872",2,18,1,3,1959.1,4,1,3,2,9.19999999999987,6,1
"1873",2,19,1,1,1321.1,2,4,7,1,299.682,1,5
"1874",2,19,1,2,1321.1,2,4,7,1,229.12,2,4
"1875",2,19,1,4,1321.1,2,4,7,1,218.17,3,3
"1876",2,19,1,3,1321.1,2,4,7,1,212.11,4,2
"1877",2,19,1,1,1321.1,2,4,7,1,182.7,5,1
"1878",2,20,1,1,1397.4,2,2,9,3,44.3,1,1
"1879",2,21,1,3,1262,4,3,8,2,227.73,1,4
"1880",2,21,1,4,1262,4,3,8,2,156.05,2,3
"1881",2,21,1,2,1262,4,3,8,2,315.94,3,2
"1882",2,21,1,1,1262,4,3,8,2,100.4,4,1
"1883",2,22,0,2,1863.6,2,2,1,1,419.1,1,2
"1884",2,22,0,4,1863.6,2,2,1,1,236.2,2,1
"1885",2,23,1,4,1418.9,3,1,1,1,206.41,1,3
"1886",2,23,1,3,1418.9,3,1,1,1,390.18,2,2
"1887",2,23,1,1,1418.9,3,1,1,1,80.8,3,1
"1888",2,24,0,1,2101.6,3,2,1,1,199.85,1,6
"1889",2,24,0,3,2101.6,3,2,1,1,244.42,2,5
"1890",2,24,0,2,2101.6,3,2,1,1,267.99,3,4
"1891",2,24,0,4,2101.6,3,2,1,1,546,4,3
"1892",2,24,0,2,2101.6,3,2,1,1,212.2,5,2
"1893",2,24,0,1,2101.6,3,2,1,1,294.6,6,1
"1894",2,25,0,2,1366.7,3,8,1,1,533.98,1,1
"1895",2,26,1,1,920.26,4,3,8,3,223.903,1,4
"1896",2,26,1,3,920.26,4,3,8,3,169.36,2,3
"1897",2,26,1,4,920.26,4,3,8,3,229.16,3,2
"1898",2,26,1,2,920.26,4,3,8,3,113.87,4,1
"1899",2,27,0,1,1292.8,1,4,1,6,198.09,1,4
"1900",2,27,0,3,1292.8,1,4,1,6,159.83,2,3
"1901",2,27,0,4,1292.8,1,4,1,6,216,3,2
"1902",2,27,0,2,1292.8,1,4,1,6,415.84,4,1
"1903",2,28,1,1,1175.9,4,2,2,2,387.072,1,3
"1904",2,28,1,3,1175.9,4,2,2,2,693.21,2,2
"1905",2,28,1,4,1175.9,4,2,2,2,42.5,3,1
"1906",2,29,1,2,1272.3,1,1,6,3,289.3,1,2
"1907",2,29,1,1,1272.3,1,1,6,3,14.5,2,1
"1908",2,30,0,1,1522.2,4,3,1,1,229.86,1,5
"1909",2,30,0,2,1522.2,4,3,1,1,207.89,2,4
"1910",2,30,0,4,1522.2,4,3,1,1,244.1,3,3
"1911",2,30,0,3,1522.2,4,3,1,1,396.16,4,2
"1912",2,30,0,4,1522.2,4,3,1,1,162,5,1
"1913",2,31,1,1,1497.9,2,2,8,3,78.54,1,4
"1914",2,31,1,4,1497.9,2,2,8,3,245.11,2,3
"1915",2,31,1,3,1497.9,2,2,8,3,362.11,3,2
"1916",2,31,1,2,1497.9,2,2,8,3,117.8,4,1
"1917",2,32,0,2,1753.1,3,1,6,8,406.15,1,2
"1918",2,32,0,1,1753.1,3,1,6,8,440.5,2,1
"1919",2,33,1,1,1585.6,8,1,2,8,356.795,1,5
"1920",2,33,1,4,1585.6,8,1,2,8,251.76,2,4
"1921",2,33,1,2,1585.6,8,1,2,8,278.28,3,3
"1922",2,33,1,3,1585.6,8,1,2,8,342.3,4,2
"1923",2,33,1,1,1585.6,8,1,2,8,144.4,5,1
"1924",2,34,1,1,1451.4,2,2,2,3,231.83,1,5
"1925",2,34,1,3,1451.4,2,2,2,3,308.05,2,4
"1926",2,34,1,4,1451.4,2,2,2,3,196.1,3,3
"1927",2,34,1,2,1451.4,2,2,2,3,262.4,4,2
"1928",2,34,1,1,1451.4,2,2,2,3,156.1,5,1
"1929",2,35,0,2,1250.7,1,1,1,8,533.81,1,1
"1930",2,36,1,1,2300.6,3,1,1,9,186.52,1,6
"1931",2,36,1,3,2300.6,3,1,1,9,165.93,2,5
"1932",2,36,1,2,2300.6,3,1,1,9,236.98,3,4
"1933",2,36,1,4,2300.6,3,1,1,9,323.96,4,3
"1934",2,36,1,2,2300.6,3,1,1,9,186.2,5,2
"1935",2,36,1,1,2300.6,3,1,1,9,828.4,6,1
"1936",2,37,0,1,1317.3,2,1,1,7,210.12,1,5
"1937",2,37,0,2,1317.3,2,1,1,7,186.41,2,4
"1938",2,37,0,4,1317.3,2,1,1,7,162.37,3,3
"1939",2,37,0,3,1317.3,2,1,1,7,260,4,2
"1940",2,37,0,1,1317.3,2,1,1,7,187,5,1
"1941",2,38,0,1,2431.5,1,1,2,6,215.83,1,6
"1942",2,38,0,2,2431.5,1,1,2,6,230.19,2,5
"1943",2,38,0,4,2431.5,1,1,2,6,221.89,3,4
"1944",2,38,0,3,2431.5,1,1,2,6,17.7200000000001,4,3
"1945",2,38,0,1,2431.5,1,1,2,6,606.3,5,2
"1946",2,38,0,2,2431.5,1,1,2,6,602.5,6,1
"1947",2,39,1,4,1047.4,10,3,1,2,152.25,1,2
"1948",2,39,1,3,1047.4,10,3,1,2,68.6800000000001,2,1
"1949",2,40,1,1,1065.6,2,2,8,1,185.59,1,4
"1950",2,40,1,3,1065.6,2,2,8,1,163.77,2,3
"1951",2,40,1,4,1065.6,2,2,8,1,190.02,3,2
"1952",2,40,1,2,1065.6,2,2,8,1,239.06,4,1
"1953",2,41,0,1,1273.3,1,1,1,3,205.86,1,4
"1954",2,41,0,2,1273.3,1,1,1,3,215.98,2,3
"1955",2,41,0,4,1273.3,1,1,1,3,193.81,3,2
"1956",2,41,0,3,1273.3,1,1,1,3,372.42,4,1
"1957",2,42,0,3,1201.7,3,9,1,3,80.5,1,1
"1958",2,43,1,2,807.57,3,1,1,2,147.69,1,3
"1959",2,43,1,4,807.57,3,1,1,2,164.53,2,2
"1960",2,43,1,3,807.57,3,1,1,2,46,3,1
"1961",2,44,1,4,1487.1,2,3,3,1,107.97,1,3
"1962",2,44,1,2,1487.1,2,3,3,1,325.99,2,2
"1963",2,44,1,3,1487.1,2,3,3,1,6.09999999999999,3,1
"1964",2,45,1,1,1551.4,1,1,6,3,304.905,1,5
"1965",2,45,1,4,1551.4,1,1,6,3,181.17,2,4
"1966",2,45,1,2,1551.4,1,1,6,3,251.12,3,3
"1967",2,45,1,3,1551.4,1,1,6,3,202.02,4,2
"1968",2,45,1,1,1551.4,1,1,6,3,214.5,5,1
"1969",2,47,0,1,837.76,1,8,2,1,175.77,1,3
"1970",2,47,0,2,837.76,1,8,2,1,180.17,2,2
"1971",2,47,0,4,837.76,1,8,2,1,254.81,3,1
"1972",2,48,0,1,1480.4,9,7,2,4,203.95,1,4
"1973",2,48,0,3,1480.4,9,7,2,4,233.07,2,3
"1974",2,48,0,4,1480.4,9,7,2,4,154.07,3,2
"1975",2,48,0,2,1480.4,9,7,2,4,586.1,4,1
"1976",2,49,1,3,1393.2,2,1,2,1,135.96,1,4
"1977",2,49,1,4,1393.2,2,1,2,1,174.15,2,3
"1978",2,49,1,2,1393.2,2,1,2,1,290.09,3,2
"1979",2,49,1,1,1393.2,2,1,2,1,69.8000000000001,4,1
"1980",2,50,0,1,1793.1,1,1,2,3,131,1,6
"1981",2,50,0,2,1793.1,1,1,2,3,208.17,2,5
"1982",2,50,0,4,1793.1,1,1,2,3,278.03,3,4
"1983",2,50,0,3,1793.1,1,1,2,3,250.04,4,3
"1984",2,50,0,1,1793.1,1,1,2,3,486.1,5,2
"1985",2,50,0,2,1793.1,1,1,2,3,69.0999999999999,6,1
"1986",2,51,1,1,1247.4,3,3,1,1,307.69,1,5
"1987",2,51,1,2,1247.4,3,3,1,1,208.11,2,4
"1988",2,51,1,4,1247.4,3,3,1,1,219.84,3,3
"1989",2,51,1,3,1247.4,3,3,1,1,232.12,4,2
"1990",2,51,1,1,1247.4,3,3,1,1,143.6,5,1
"1991",2,52,0,3,998.74,2,3,3,9,0.619999999999954,1,1
"1992",2,53,1,4,932.13,8,3,3,3,81.65,1,2
"1993",2,53,1,2,932.13,8,3,3,3,155.96,2,1
"1994",2,54,1,1,939.06,8,6,1,1,172.03,1,3
"1995",2,54,1,2,939.06,8,6,1,1,213.82,2,2
"1996",2,54,1,4,939.06,8,6,1,1,240.04,3,1
"1997",2,55,1,1,1942.1,3,1,3,3,197.87,1,6
"1998",2,55,1,3,1942.1,3,1,3,3,169.93,2,5
"1999",2,55,1,4,1942.1,3,1,3,3,199.95,3,4
"2000",2,55,1,2,1942.1,3,1,3,3,288.92,4,3
"2001",2,55,1,1,1942.1,3,1,3,3,334,5,2
"2002",2,55,1,3,1942.1,3,1,3,3,388.3,6,1
"2003",2,56,1,2,2428.3,1,1,1,1,94.32,1,6
"2004",2,56,1,4,2428.3,1,1,1,1,210.04,2,5
"2005",2,56,1,3,2428.3,1,1,1,1,12.14,3,4
"2006",2,56,1,1,2428.3,1,1,1,1,519.6,4,3
"2007",2,56,1,2,2428.3,1,1,1,1,340,5,2
"2008",2,56,1,4,2428.3,1,1,1,1,316.4,6,1
"2009",2,57,0,1,2232.7,2,2,3,3,275.99,1,6
"2010",2,57,0,2,2232.7,2,2,3,3,225.94,2,5
"2011",2,57,0,4,2232.7,2,2,3,3,296.13,3,4
"2012",2,57,0,3,2232.7,2,2,3,3,343.9,4,3
"2013",2,57,0,2,2232.7,2,2,3,3,397.4,5,2
"2014",2,57,0,4,2232.7,2,2,3,3,239.9,6,1
"2015",2,58,0,4,1196.9,3,2,10,3,12.96,1,2
"2016",2,58,0,3,1196.9,3,2,10,3,12.09,2,1
"2017",2,59,0,1,1236.4,8,8,4,10,111.6,1,4
"2018",2,59,0,2,1236.4,8,8,4,10,240.06,2,3
"2019",2,59,0,4,1236.4,8,8,4,10,456.2,3,2
"2020",2,59,0,3,1236.4,8,8,4,10,55.7999999999998,4,1
"2021",2,60,0,1,1693.1,3,3,1,8,212.86,1,5
"2022",2,60,0,2,1693.1,3,3,1,8,201.93,2,4
"2023",2,60,0,4,1693.1,3,3,1,8,202.11,3,3
"2024",2,60,0,1,1693.1,3,3,1,8,310.04,4,2
"2025",2,60,0,3,1693.1,3,3,1,8,344.3,5,1
"2026",2,62,1,1,1797,8,3,1,1,261.719,1,5
"2027",2,62,1,3,1797,8,3,1,1,10.5700000000001,2,4
"2028",2,62,1,4,1797,8,3,1,1,162.07,3,3
"2029",2,62,1,2,1797,8,3,1,1,368,4,2
"2030",2,62,1,4,1797,8,3,1,1,382.5,5,1
"2031",2,63,1,1,2725.3,4,1,2,1,97.1000000000002,1,3
"2032",2,63,1,4,2725.3,4,1,2,1,430.1,2,2
"2033",2,63,1,2,2725.3,4,1,2,1,163.6,3,1
"2034",2,64,1,1,1426.6,2,1,1,1,308.14,1,5
"2035",2,64,1,2,1426.6,2,1,1,1,239.07,2,4
"2036",2,64,1,4,1426.6,2,1,1,1,232.01,3,3
"2037",2,64,1,3,1426.6,2,1,1,1,165.98,4,2
"2038",2,64,1,1,1426.6,2,1,1,1,130.4,5,1
"2039",2,65,1,1,1402.7,8,1,1,3,1.40000000000007,1,1
"2040",2,66,1,4,1622.8,2,3,4,1,39.7700000000001,1,4
"2041",2,66,1,2,1622.8,2,3,4,1,285.4,2,3
"2042",2,66,1,3,1622.8,2,3,4,1,216.2,3,2
"2043",2,66,1,1,1622.8,2,3,4,1,230.1,4,1
"2044",2,68,0,1,5557.2,8,10,1,1,249.62,1,15
"2045",2,68,0,3,5557.2,8,10,1,1,246,2,14
"2046",2,68,0,4,5557.2,8,10,1,1,180.05,3,13
"2047",2,68,0,2,5557.2,8,10,1,1,732.46,4,12
"2048",2,68,0,1,5557.2,8,10,1,1,194.7,5,11
"2049",2,68,0,3,5557.2,8,10,1,1,112,6,10
"2050",2,68,0,2,5557.2,8,10,1,1,578,7,9
"2051",2,68,0,1,5557.2,8,10,1,1,646.4,8,8
"2052",2,68,0,3,5557.2,8,10,1,1,98.1000000000001,9,7
"2053",2,68,0,1,5557.2,8,10,1,1,180.2,10,6
"2054",2,68,0,2,5557.2,8,10,1,1,380.100000000001,11,5
"2055",2,68,0,1,5557.2,8,10,1,1,216.3,12,4
"2056",2,68,0,3,5557.2,8,10,1,1,171.8,13,3
"2057",2,68,0,4,5557.2,8,10,1,1,549.6,14,2
"2058",2,68,0,3,5557.2,8,10,1,1,180.4,15,1
"2059",2,69,0,1,1190,3,3,1,2,134,1,4
"2060",2,69,0,2,1190,3,3,1,2,215.6,2,3
"2061",2,69,0,3,1190,3,3,1,2,193.75,3,2
"2062",2,69,0,4,1190,3,3,1,2,304.19,4,1
"2063",2,70,1,1,1173.8,7,3,2,2,216.943,1,4
"2064",2,70,1,3,1173.8,7,3,2,2,13.97,2,3
"2065",2,70,1,1,1173.8,7,3,2,2,370.18,3,2
"2066",2,70,1,4,1173.8,7,3,2,2,32.6,4,1
"2067",2,72,0,2,2277.7,2,2,1,3,177.26,1,5
"2068",2,72,0,3,2277.7,2,2,1,3,183.96,2,4
"2069",2,72,0,1,2277.7,2,2,1,3,280.1,3,3
"2070",2,72,0,4,2277.7,2,2,1,3,290.2,4,2
"2071",2,72,0,2,2277.7,2,2,1,3,428.3,5,1
"2072",2,73,0,1,2350.3,2,1,1,9,339.739,1,5
"2073",2,73,0,2,2350.3,2,1,1,9,196.1,2,4
"2074",2,73,0,3,2350.3,2,1,1,9,302.14,3,3
"2075",2,73,0,4,2350.3,2,1,1,9,537.8,4,2
"2076",2,73,0,2,2350.3,2,1,1,9,548.9,5,1
"2077",2,74,0,2,1647.3,1,6,1,1,267.7,1,1
"2078",2,75,0,1,1163.6,1,1,1,8,179.93,1,4
"2079",2,75,0,4,1163.6,1,1,1,8,227.96,2,3
"2080",2,75,0,2,1163.6,1,1,1,8,258.02,3,2
"2081",2,75,0,3,1163.6,1,1,1,8,198.43,4,1
"2082",2,76,1,3,1313.4,1,1,4,3,47.98,1,4
"2083",2,76,1,4,1313.4,1,1,4,3,214.21,2,3
"2084",2,76,1,2,1313.4,1,1,4,3,301.93,3,2
"2085",2,76,1,1,1313.4,1,1,4,3,94.2999999999998,4,1
"2086",2,77,1,4,1336,4,1,1,1,139.93,1,3
"2087",2,77,1,2,1336,4,1,1,1,353.89,2,2
"2088",2,77,1,1,1336,4,1,1,1,18.2,3,1
"2089",2,78,0,4,1385.2,1,1,1,7,3.90000000000001,1,5
"2090",2,78,0,1,1385.2,1,1,1,7,264.02,2,4
"2091",2,78,0,3,1385.2,1,1,1,7,163.92,3,3
"2092",2,78,0,4,1385.2,1,1,1,7,201.93,4,2
"2093",2,78,0,2,1385.2,1,1,1,7,307.6,5,1
"2094",2,79,0,4,1463.2,2,2,1,4,184.2,1,1
"2095",2,80,0,1,1388.7,3,3,2,1,13.04,1,4
"2096",2,80,0,3,1388.7,3,3,2,1,192.18,2,3
"2097",2,80,0,4,1388.7,3,3,2,1,215.88,3,2
"2098",2,80,0,2,1388.7,3,3,2,1,412.3,4,1
"2099",2,81,0,1,3137.8,1,2,1,3,230.02,1,7
"2100",2,81,0,2,3137.8,1,2,1,3,260.18,2,6
"2101",2,81,0,4,3137.8,1,2,1,3,318.07,3,5
"2102",2,81,0,3,3137.8,1,2,1,3,288.2,4,4
"2103",2,81,0,4,3137.8,1,2,1,3,658.1,5,3
"2104",2,81,0,2,3137.8,1,2,1,3,434.3,6,2
"2105",2,81,0,1,3137.8,1,2,1,3,221.9,7,1
"2106",2,82,0,1,1484.1,8,6,1,10,267.98,1,4
"2107",2,82,0,2,1484.1,8,6,1,10,253.9,2,3
"2108",2,82,0,4,1484.1,8,6,1,10,187.84,3,2
"2109",2,82,0,3,1484.1,8,6,1,10,393.9,4,1
"2110",2,83,0,2,2220.9,1,2,8,1,89.9700000000001,1,5
"2111",2,83,0,4,2220.9,1,2,8,1,350.22,2,4
"2112",2,83,0,1,2220.9,1,2,8,1,504.05,3,3
"2113",2,83,0,3,2220.9,1,2,8,1,189.9,4,2
"2114",2,83,0,1,2220.9,1,2,8,1,235.5,5,1
"2115",2,84,0,1,2913.6,1,2,1,3,129.99,1,8
"2116",2,84,0,3,2913.6,1,2,1,3,151.97,2,7
"2117",2,84,0,2,2913.6,1,2,1,3,249.81,3,6
"2118",2,84,0,4,2913.6,1,2,1,3,396.12,4,5
"2119",2,84,0,3,2913.6,1,2,1,3,264,5,4
"2120",2,84,0,1,2913.6,1,2,1,3,376,6,3
"2121",2,84,0,2,2913.6,1,2,1,3,353.9,7,2
"2122",2,84,0,4,2913.6,1,2,1,3,250.3,8,1
"2123",2,85,0,4,1244.4,2,2,1,1,238.04,1,2
"2124",2,85,0,3,1244.4,2,2,1,1,141.86,2,1
"2125",2,86,0,1,3115.5,1,3,1,2,183.78,1,9
"2126",2,86,0,2,3115.5,1,3,1,2,226.18,2,8
"2127",2,86,0,4,3115.5,1,3,1,2,404.11,3,7
"2128",2,86,0,3,3115.5,1,3,1,2,220.6,4,6
"2129",2,86,0,1,3115.5,1,3,1,2,314.3,5,5
"2130",2,86,0,2,3115.5,1,3,1,2,398,6,4
"2131",2,86,0,4,3115.5,1,3,1,2,322,7,3
"2132",2,86,0,3,3115.5,1,3,1,2,328.6,8,2
"2133",2,86,0,1,3115.5,1,3,1,2,283.5,9,1
"2134",2,87,0,4,1763.9,1,2,2,3,23.0900000000001,1,4
"2135",2,87,0,2,1763.9,1,2,2,3,338.06,2,3
"2136",2,87,0,1,1763.9,1,2,2,3,212,3,2
"2137",2,87,0,3,1763.9,1,2,2,3,230,4,1
"2138",2,88,1,1,1569,7,8,3,1,120.01,1,5
"2139",2,88,1,4,1569,7,8,3,1,237.93,2,4
"2140",2,88,1,3,1569,7,8,3,1,281.73,3,3
"2141",2,88,1,1,1569,7,8,3,1,366.22,4,2
"2142",2,88,1,3,1569,7,8,3,1,224.2,5,1
"2143",2,89,1,2,1310.9,2,10,2,1,6.89999999999991,1,1
"2144",2,90,1,1,1368.9,8,2,2,3,39.3,1,5
"2145",2,90,1,2,1368.9,8,2,2,3,223.95,2,4
"2146",2,90,1,4,1368.9,8,2,2,3,136.1,3,3
"2147",2,90,1,3,1368.9,8,2,2,3,14,4,2
"2148",2,90,1,1,1368.9,8,2,2,3,125.6,5,1
"2149",2,91,0,1,2017.8,4,9,1,2,49.6000000000001,1,2
"2150",2,91,0,4,2017.8,4,9,1,2,555.6,2,1
"2151",2,92,1,1,2639.8,2,1,3,1,289.1,1,4
"2152",2,92,1,2,2639.8,2,1,3,1,264.3,2,3
"2153",2,92,1,4,2639.8,2,1,3,1,302.2,3,2
"2154",2,92,1,3,2639.8,2,1,3,1,384.2,4,1
"2155",2,93,1,1,1061,9,2,1,1,191.89,1,4
"2156",2,93,1,3,1061,9,2,1,1,213.93,2,3
"2157",2,93,1,4,1061,9,2,1,1,132,3,2
"2158",2,93,1,2,1061,9,2,1,1,251.79,4,1
"2159",2,94,1,3,1049.7,10,2,1,3,4.34000000000001,1,2
"2160",2,94,1,2,1049.7,10,2,1,3,97.89,2,1
"2161",2,95,0,4,1451.3,1,10,3,2,185.1,1,2
"2162",2,95,0,2,1451.3,1,10,3,2,25.6000000000001,2,1
"2163",2,96,1,1,529.16,8,1,2,8,235.48,1,2
"2164",2,96,1,3,529.16,8,1,2,8,88.6,2,1
"2165",2,97,0,1,1292.8,1,9,3,2,147.1,1,3
"2166",2,97,0,4,1292.8,1,9,3,2,236.4,2,2
"2167",2,97,0,2,1292.8,1,9,3,2,299.97,3,1
"2168",2,98,0,1,2515.4,1,2,2,3,201.73,1,6
"2169",2,98,0,2,2515.4,1,2,2,3,216,2,5
"2170",2,98,0,4,2515.4,1,2,2,3,206.08,3,4
"2171",2,98,0,2,2515.4,1,2,2,3,223.8,4,3
"2172",2,98,0,3,2515.4,1,2,2,3,7.90000000000024,5,2
"2173",2,98,0,2,2515.4,1,2,2,3,255.9,6,1
"2174",2,99,0,2,1780.1,1,3,1,2,169.9,1,5
"2175",2,99,0,1,1780.1,1,3,1,2,273.98,2,4
"2176",2,99,0,4,1780.1,1,3,1,2,416.1,3,3
"2177",2,99,0,2,1780.1,1,3,1,2,271.5,4,2
"2178",2,99,0,3,1780.1,1,3,1,2,1.80000000000002,5,1
"2179",2,100,1,1,2310.9,1,6,2,1,90.28,1,7
"2180",2,100,1,2,2310.9,1,6,2,1,198,2,6
"2181",2,100,1,4,2310.9,1,6,2,1,218.07,3,5
"2182",2,100,1,3,2310.9,1,6,2,1,372.03,4,4
"2183",2,100,1,2,2310.9,1,6,2,1,72.0000000000001,5,3
"2184",2,100,1,1,2310.9,1,6,2,1,453.9,6,2
"2185",2,100,1,2,2310.9,1,6,2,1,214.1,7,1
"2186",2,101,0,1,1142.8,6,10,1,1,227.86,1,4
"2187",2,101,0,2,1142.8,6,10,1,1,211.99,2,3
"2188",2,101,0,4,1142.8,6,10,1,1,314.4,3,2
"2189",2,101,0,3,1142.8,6,10,1,1,14,4,1
"2190",2,102,1,3,1098.4,10,1,3,4,183.03,1,2
"2191",2,102,1,4,1098.4,10,1,3,4,80.2,2,1
"2192",2,103,1,1,2028.8,6,1,1,1,209.93,1,7
"2193",2,103,1,2,2028.8,6,1,1,1,278.03,2,6
"2194",2,103,1,1,2028.8,6,1,1,1,230.19,3,5
"2195",2,103,1,3,2028.8,6,1,1,1,246.08,4,4
"2196",2,103,1,4,2028.8,6,1,1,1,223.9,5,3
"2197",2,103,1,2,2028.8,6,1,1,1,348,6,2
"2198",2,103,1,1,2028.8,6,1,1,1,122,7,1
"2199",2,104,1,1,2419.1,9,1,2,8,191.67,1,6
"2200",2,104,1,3,2419.1,9,1,2,8,112.01,2,5
"2201",2,104,1,4,2419.1,9,1,2,8,148.37,3,4
"2202",2,104,1,2,2419.1,9,1,2,8,391.87,4,3
"2203",2,104,1,1,2419.1,9,1,2,8,367.8,5,2
"2204",2,104,1,3,2419.1,9,1,2,8,400,6,1
"2205",2,105,1,1,1228.6,2,1,3,10,230.01,1,4
"2206",2,105,1,3,1228.6,2,1,3,10,208.04,2,3
"2207",2,105,1,2,1228.6,2,1,3,10,216.29,3,2
"2208",2,105,1,4,1228.6,2,1,3,10,270.01,4,1
"2209",2,106,1,1,851.86,1,2,6,10,280.919,1,4
"2210",2,106,1,2,851.86,1,2,6,10,142.23,2,3
"2211",2,106,1,3,851.86,1,2,6,10,270.27,3,2
"2212",2,106,1,4,851.86,1,2,6,10,41.75,4,1
"2213",2,107,1,4,1206,9,1,1,4,138.14,1,2
"2214",2,107,1,2,1206,9,1,1,4,263.98,2,1
"2215",2,108,0,1,2280.5,4,1,3,1,189.9,1,7
"2216",2,108,0,2,2280.5,4,1,3,1,180.92,2,6
"2217",2,108,0,4,2280.5,4,1,3,1,262.04,3,5
"2218",2,108,0,3,2280.5,4,1,3,1,384.06,4,4
"2219",2,108,0,1,2280.5,4,1,3,1,212,5,3
"2220",2,108,0,2,2280.5,4,1,3,1,523.9,6,2
"2221",2,108,0,4,2280.5,4,1,3,1,26.1,7,1
"2222",2,109,0,1,1333.5,4,1,1,1,214.08,1,4
"2223",2,109,0,2,1333.5,4,1,1,1,220.1,2,3
"2224",2,109,0,4,1333.5,4,1,1,1,268.04,3,2
"2225",2,109,0,3,1333.5,4,1,1,1,315,4,1
"2226",2,110,1,1,1150,2,10,1,1,183.91,1,5
"2227",2,110,1,2,1150,2,10,1,1,222.13,2,4
"2228",2,110,1,4,1150,2,10,1,1,323.88,3,3
"2229",2,110,1,3,1150,2,10,1,1,7.85000000000002,4,2
"2230",2,110,1,1,1150,2,10,1,1,9.59999999999983,5,1
"2231",2,111,1,2,1084.8,1,1,2,1,203.84,1,4
"2232",2,111,1,4,1084.8,1,1,2,1,205.9,2,3
"2233",2,111,1,3,1084.8,1,1,2,1,35.91,3,2
"2234",2,111,1,1,1084.8,1,1,2,1,31.4000000000001,4,1
"2235",2,112,1,2,2146.1,4,8,10,1,678.4,1,2
"2236",2,112,1,3,2146.1,4,8,10,1,190.1,2,1
"2237",3,1,1,2,737.65,8,2,5,7,467.48,1,1
"2238",3,2,0,1,1849.7,10,4,1,10,318.05,1,4
"2239",3,2,0,3,1849.7,10,4,1,10,394.01,2,3
"2240",3,2,0,4,1849.7,10,4,1,10,417.2,3,2
"2241",3,2,0,2,1849.7,10,4,1,10,157.6,4,1
"2242",3,3,0,2,1213.2,3,4,10,5,305.14,1,3
"2243",3,3,0,4,1213.2,3,4,10,5,374.23,2,2
"2244",3,3,0,3,1213.2,3,4,10,5,85.3000000000002,3,1
"2245",3,4,1,2,1491.3,3,3,4,9,93,1,4
"2246",3,4,1,4,1491.3,3,3,4,9,192.12,2,3
"2247",3,4,1,3,1491.3,3,3,4,9,212.25,3,2
"2248",3,4,1,1,1491.3,3,3,4,9,481.3,4,1
"2249",3,5,1,1,1453,7,4,10,5,323.87,1,4
"2250",3,5,1,3,1453,7,4,10,5,233.77,2,3
"2251",3,5,1,4,1453,7,4,10,5,272.11,3,2
"2252",3,5,1,2,1453,7,4,10,5,287.9,4,1
"2253",3,6,1,1,1673.1,10,7,4,10,263.9,1,4
"2254",3,6,1,3,1673.1,10,7,4,10,266.01,2,3
"2255",3,6,1,4,1673.1,10,7,4,10,232.03,3,2
"2256",3,6,1,2,1673.1,10,7,4,10,309.9,4,1
"2257",3,7,1,4,1559.5,10,8,9,10,371,1,3
"2258",3,7,1,3,1559.5,10,8,9,10,274.13,2,2
"2259",3,7,1,1,1559.5,10,8,9,10,411.7,3,1
"2260",3,8,0,1,1249.3,5,10,5,4,227.76,1,3
"2261",3,8,0,2,1249.3,5,10,5,4,278.21,2,2
"2262",3,8,0,4,1249.3,5,10,5,4,265.48,3,1
"2263",3,9,1,1,1720.6,7,10,6,9,408.03,1,4
"2264",3,9,1,3,1720.6,7,10,6,9,525.94,2,3
"2265",3,9,1,4,1720.6,7,10,6,9,284.1,3,2
"2266",3,9,1,2,1720.6,7,10,6,9,181,4,1
"2267",3,10,1,1,1594.1,10,10,4,7,372.45,1,4
"2268",3,10,1,3,1594.1,10,10,4,7,223.99,2,3
"2269",3,10,1,4,1594.1,10,10,4,7,350.3,3,2
"2270",3,10,1,2,1594.1,10,10,4,7,353,4,1
"2271",3,11,0,1,2006.9,3,10,10,8,514.16,1,4
"2272",3,11,0,3,2006.9,3,10,10,8,262.82,2,3
"2273",3,11,0,4,2006.9,3,10,10,8,270,3,2
"2274",3,11,0,2,2006.9,3,10,10,8,570.8,4,1
"2275",3,12,0,2,1699.2,6,3,8,10,271.12,1,5
"2276",3,12,0,4,1699.2,6,3,8,10,372.64,2,4
"2277",3,12,0,3,1699.2,6,3,8,10,291.14,3,3
"2278",3,12,0,1,1699.2,6,3,8,10,403.2,4,2
"2279",3,12,0,2,1699.2,6,3,8,10,24,5,1
"2280",3,13,1,2,1660.1,10,9,10,4,267.9,1,4
"2281",3,13,1,4,1660.1,10,9,10,4,349.89,2,3
"2282",3,13,1,3,1660.1,10,9,10,4,298.2,3,2
"2283",3,13,1,1,1660.1,10,9,10,4,451.2,4,1
"2284",3,14,0,1,1175,9,5,4,10,183.06,1,3
"2285",3,14,0,3,1175,9,5,4,10,237.9,2,2
"2286",3,14,0,4,1175,9,5,4,10,391.03,3,1
"2287",3,15,0,2,1390.9,10,8,5,10,241.79,1,4
"2288",3,15,0,4,1390.9,10,8,5,10,264.26,2,3
"2289",3,15,0,3,1390.9,10,8,5,10,263.99,3,2
"2290",3,15,0,1,1390.9,10,8,5,10,262,4,1
"2291",3,16,0,2,1478.1,9,7,3,4,213.86,1,5
"2292",3,16,0,1,1478.1,9,7,3,4,19.96,2,4
"2293",3,16,0,3,1478.1,9,7,3,4,164.17,3,3
"2294",3,16,0,4,1478.1,9,7,3,4,311.5,4,2
"2295",3,16,0,2,1478.1,9,7,3,4,102.5,5,1
"2296",3,17,1,1,1215.4,10,8,10,6,356.02,1,3
"2297",3,17,1,3,1215.4,10,8,10,6,330.31,2,2
"2298",3,17,1,4,1215.4,10,8,10,6,258.23,3,1
"2299",3,18,0,1,1686.4,10,8,8,10,274.8,1,4
"2300",3,18,0,3,1686.4,10,8,8,10,201.91,2,3
"2301",3,18,0,4,1686.4,10,8,8,10,420,3,2
"2302",3,18,0,2,1686.4,10,8,8,10,303.1,4,1
"2303",3,19,1,1,1722.2,4,4,4,2,351.52,1,5
"2304",3,19,1,3,1722.2,4,4,4,2,216.45,2,4
"2305",3,19,1,4,1722.2,4,4,4,2,228.1,3,3
"2306",3,19,1,2,1722.2,4,4,4,2,319.8,4,2
"2307",3,19,1,3,1722.2,4,4,4,2,258.6,5,1
"2308",3,20,0,1,1686.8,10,8,3,10,394.01,1,4
"2309",3,20,0,3,1686.8,10,8,3,10,241.05,2,3
"2310",3,20,0,4,1686.8,10,8,3,10,282.2,3,2
"2311",3,20,0,2,1686.8,10,8,3,10,360.6,4,1
"2312",3,21,0,1,971.19,9,3,10,9,278.02,1,2
"2313",3,21,0,2,971.19,9,3,10,9,252.69,2,1
"2314",3,22,1,1,1449.2,10,10,6,7,352.16,1,4
"2315",3,22,1,3,1449.2,10,10,6,7,252.09,2,3
"2316",3,22,1,4,1449.2,10,10,6,7,236.94,3,2
"2317",3,22,1,2,1449.2,10,10,6,7,254.2,4,1
"2318",3,23,1,1,1094.4,10,10,10,8,298.07,1,3
"2319",3,23,1,3,1094.4,10,10,10,8,391.3,2,2
"2320",3,23,1,4,1094.4,10,10,10,8,151.08,3,1
"2321",3,24,1,1,1090.3,10,10,5,4,275.97,1,3
"2322",3,24,1,3,1090.3,10,10,5,4,209.67,2,2
"2323",3,24,1,4,1090.3,10,10,5,4,352.8,3,1
"2324",3,25,0,1,1163.1,5,4,3,9,233.84,1,4
"2325",3,25,0,3,1163.1,5,4,3,9,206,2,3
"2326",3,25,0,4,1163.1,5,4,3,9,359.2,3,2
"2327",3,25,0,2,1163.1,5,4,3,9,36.6,4,1
"2328",3,26,0,2,1885.7,5,7,10,4,251.89,1,5
"2329",3,26,0,1,1885.7,5,7,10,4,225.22,2,4
"2330",3,26,0,3,1885.7,5,7,10,4,194.17,3,3
"2331",3,26,0,4,1885.7,5,7,10,4,273.92,4,2
"2332",3,26,0,2,1885.7,5,7,10,4,622.5,5,1
"2333",3,27,0,1,1814,3,7,6,4,400.06,1,5
"2334",3,27,0,3,1814,3,7,6,4,245.97,2,4
"2335",3,27,0,4,1814,3,7,6,4,250.79,3,3
"2336",3,27,0,2,1814,3,7,6,4,240.5,4,2
"2337",3,27,0,1,1814,3,7,6,4,334.5,5,1
"2338",3,28,0,1,1273.9,4,9,8,4,298.13,1,4
"2339",3,28,0,3,1273.9,4,9,8,4,169.98,2,3
"2340",3,28,0,4,1273.9,4,9,8,4,404.08,3,2
"2341",3,28,0,2,1273.9,4,9,8,4,105.2,4,1
"2342",3,29,0,1,1277.8,2,2,10,8,217.74,1,4
"2343",3,29,0,3,1277.8,2,2,10,8,182.05,2,3
"2344",3,29,0,4,1277.8,2,2,10,8,332.02,3,2
"2345",3,29,0,2,1277.8,2,2,10,8,228.9,4,1
"2346",3,30,1,2,1230.5,10,7,4,1,263.85,1,4
"2347",3,30,1,1,1230.5,10,7,4,1,236.21,2,3
"2348",3,30,1,3,1230.5,10,7,4,1,216.18,3,2
"2349",3,30,1,4,1230.5,10,7,4,1,190.6,4,1
"2350",3,31,0,1,1146.7,8,10,10,3,388.14,1,2
"2351",3,31,0,2,1146.7,8,10,10,3,315.54,2,1
"2352",3,32,0,2,1232.9,8,3,10,7,13.21,1,3
