,subject,trial,leftrating,rightrating,rt,choice,correct
1,10,1,4,2,3808,1,1
2,10,2,3,2,1913,1,1
3,10,3,5,10,1121,0,1
4,10,4,6,6,2051,0,0
5,10,5,6,7,1655,0,1
6,10,9,6,2,2504,1,1
7,10,10,3,3,2002,1,0
8,10,11,6,5,1426,1,1
9,10,16,5,8,1065,0,1
10,10,17,6,8,1209,1,0
11,10,18,4,6,1604,0,1
12,10,19,2,6,1439,0,1
13,10,20,9,9,5744,0,0
14,10,22,1,5,1270,0,1
15,10,23,4,3,1452,1,1
16,10,24,2,2,3525,0,0
17,10,25,4,3,3439,1,1
18,10,26,1,2,3582,1,0
19,10,27,6,8,2023,1,0
20,10,28,2,5,1727,0,1
21,10,29,8,3,1368,1,1
22,10,30,10,5,1568,1,1
23,10,31,2,4,1697,0,1
24,10,32,8,7,1595,0,0
25,10,33,3,3,2701,1,0
26,10,34,2,7,1471,0,1
27,10,35,4,7,2055,0,1
28,10,36,4,9,1303,0,1
29,10,38,3,2,1304,0,0
30,10,39,6,5,1581,1,1
31,10,40,3,2,7866,1,1
32,10,41,10,5,1291,1,1
33,10,42,5,1,1433,1,1
34,10,43,9,6,1250,1,1
35,10,44,6,6,1409,0,0
36,10,45,10,9,1342,0,0
37,10,46,5,2,1363,0,0
38,10,47,4,3,2243,1,1
39,10,48,3,4,1288,0,1
40,10,49,7,2,1112,1,1
41,10,50,5,8,1538,0,1
42,10,51,10,5,807,1,1
43,10,52,7,2,1117,1,1
44,10,53,4,3,4096,1,1
45,10,54,6,2,1119,1,1
46,10,55,4,7,1970,0,1
47,10,56,3,6,1074,0,1
48,10,57,9,4,1668,1,1
49,10,58,1,3,2089,0,1
50,10,59,2,7,2241,0,1
51,10,60,3,7,937,0,1
52,10,61,6,8,1251,1,0
53,10,62,8,6,6836,1,1
54,10,63,1,3,1125,0,1
55,10,64,9,4,801,1,1
56,10,65,1,3,975,0,1
57,10,66,6,4,1514,1,1
58,10,67,1,4,682,0,1
59,10,68,2,6,1323,0,1
60,10,69,5,3,1009,1,1
61,10,70,6,9,1341,0,1
62,10,71,6,10,852,0,1
63,10,72,2,6,832,0,1
64,10,73,4,9,1025,0,1
65,10,74,4,9,1902,0,1
66,10,75,6,10,1277,0,1
67,10,76,6,10,755,0,1
68,10,77,6,8,1357,0,1
69,10,78,2,1,1427,1,1
70,10,79,7,3,928,1,1
71,10,80,2,4,1971,1,0
72,10,81,2,6,1167,0,1
73,10,82,4,6,1123,0,1
74,10,83,9,10,3939,0,1
75,10,84,4,5,1220,0,1
76,10,85,1,3,4142,0,1
77,10,86,4,3,1102,0,0
78,10,87,10,10,2291,1,0
79,10,88,2,6,745,0,1
80,10,89,2,2,1713,0,0
81,10,90,3,6,974,0,1
82,10,91,5,4,2256,0,0
83,10,92,6,3,834,1,1
84,10,93,2,4,1771,1,0
85,10,94,4,4,864,0,0
86,10,95,4,1,804,1,1
87,10,96,5,5,2060,0,0
88,10,97,1,5,1042,0,1
89,10,98,8,10,844,0,1
90,10,99,4,3,898,0,0
91,10,100,2,2,964,1,0
92,11,1,5,2,1672,1,1
93,11,2,9,8,1748,1,1
94,11,3,7,10,2104,0,1
95,11,4,8,2,4422,1,1
96,11,5,0,5,2940,1,0
97,11,6,8,8,4395,1,0
98,11,7,9,3,2623,1,1
99,11,8,2,7,1770,0,1
100,11,9,7,5,3117,1,1
101,11,10,10,7,1291,1,1
102,11,11,2,2,1846,0,0
103,11,12,2,7,1844,1,0
104,11,13,8,9,1692,0,1
105,11,14,4,9,2767,0,1
106,11,15,2,7,1758,0,1
107,11,16,1,2,1847,1,0
108,11,17,10,3,1106,1,1
109,11,18,8,10,1128,1,0
110,11,19,9,3,2655,0,0
111,11,20,2,8,1937,0,1
112,11,21,8,10,995,1,0
113,11,22,8,10,1443,1,0
114,11,23,8,1,1489,1,1
115,11,24,2,9,1190,0,1
116,11,25,3,1,1292,1,1
117,11,26,8,10,1428,0,1
118,11,27,10,7,1898,1,1
119,11,28,2,0,1511,1,1
120,11,29,8,1,4826,0,0
121,11,30,10,10,2185,0,0
122,11,31,10,10,1453,0,0
123,11,32,1,3,2734,0,1
124,11,33,8,10,1087,0,1
125,11,34,8,5,2593,0,0
126,11,35,2,8,4380,0,1
127,11,36,9,5,1338,1,1
128,11,37,5,9,1472,0,1
129,11,38,0,7,4602,1,0
130,11,39,8,9,1431,0,1
131,11,40,8,8,2185,1,0
132,11,41,5,8,1361,1,0
133,11,42,4,8,1603,0,1
134,11,43,9,7,945,1,1
135,11,44,5,8,1031,1,0
136,11,45,1,5,1772,0,1
137,11,46,4,10,1327,1,0
138,11,47,3,5,2003,0,1
139,11,48,7,9,1016,0,1
140,11,49,7,2,1298,1,1
141,11,50,5,8,1037,1,0
142,11,51,0,3,3648,0,1
143,11,52,2,7,2179,0,1
144,11,53,8,2,1302,1,1
145,11,54,9,10,1193,0,1
146,11,55,4,8,1082,0,1
147,11,56,2,0,1311,1,1
148,11,57,4,8,1021,1,0
149,11,58,0,3,1141,1,0
150,11,59,9,8,849,1,1
151,11,60,2,5,1466,1,0
152,11,61,7,8,1178,0,1
153,11,62,4,10,1217,1,0
154,11,63,8,8,854,1,0
155,11,64,10,9,1325,1,1
156,11,65,6,0,1685,0,0
157,11,66,8,1,2164,1,1
158,11,67,1,5,1379,0,1
159,11,68,0,5,2449,0,1
160,11,69,1,5,1111,0,1
161,11,70,7,4,2380,1,1
162,11,71,4,2,1305,1,1
163,11,72,8,2,1166,1,1
164,11,73,7,7,1279,0,0
165,11,74,2,1,1877,0,0
166,11,75,4,10,941,0,1
167,11,76,8,8,1456,1,0
168,11,77,0,6,2263,1,0
169,11,78,9,10,743,1,0
170,11,79,8,5,998,1,1
171,11,80,2,9,878,0,1
172,11,81,2,1,1639,1,1
173,11,82,9,6,1535,1,1
174,11,83,2,8,1204,0,1
175,11,84,10,5,1103,0,0
176,11,86,10,7,896,1,1
177,11,87,8,2,1008,1,1
178,11,88,3,10,875,0,1
179,11,89,0,0,1477,1,0
180,11,90,8,7,944,0,0
181,11,91,8,4,1690,1,1
182,11,92,6,10,667,0,1
183,11,93,4,5,1015,0,1
184,11,94,8,1,812,1,1
185,11,95,8,9,1113,0,1
186,11,96,1,1,1401,0,0
187,11,97,4,2,1332,0,0
188,11,98,10,6,728,1,1
189,11,99,10,8,1106,1,1
190,11,100,3,1,1561,0,0
191,13,1,1,2,3848,0,1
192,13,2,2,0,2885,1,1
193,13,3,2,3,6540,1,0
194,13,4,1,0,2175,1,1
195,13,5,2,2,12619,0,0
196,13,6,4,1,4507,1,1
197,13,7,0,0,8347,0,0
198,13,8,1,3,4549,0,1
199,13,9,3,2,3514,1,1
200,13,10,0,2,2127,0,1
201,13,11,1,4,2383,0,1
202,13,12,4,2,9526,1,1
203,13,13,1,3,2193,0,1
204,13,14,2,0,5808,1,1
205,13,15,3,0,4362,1,1
206,13,16,5,2,4429,1,1
207,13,17,2,3,1713,0,1
208,13,18,2,1,9120,0,0
209,13,19,2,4,2621,0,1
210,13,20,2,0,3390,1,1
211,13,21,5,0,7396,1,1
212,13,22,2,3,3426,0,1
213,13,23,3,2,10055,0,0
214,13,24,3,0,4690,1,1
215,13,25,4,3,5192,1,1
216,13,26,4,1,3098,1,1
217,13,27,1,3,3072,0,1
218,13,28,3,0,8430,1,1
219,13,29,1,5,2831,0,1
220,13,30,0,0,8306,0,0
221,13,31,3,1,4834,1,1
222,13,32,2,1,5998,0,0
223,13,33,4,4,15825,0,0
224,13,34,1,4,5164,1,0
225,13,35,1,2,12014,0,1
226,13,36,0,0,5284,1,0
227,13,37,2,0,7170,1,1
228,13,38,4,3,10207,1,1
229,13,39,2,2,5170,0,0
230,13,40,2,0,3539,1,1
231,13,41,0,1,2265,1,0
232,13,42,6,2,5702,1,1
233,13,43,4,1,5594,1,1
234,13,44,2,2,3327,0,0
235,13,45,3,2,3654,1,1
236,13,46,1,0,5344,1,1
237,13,47,2,2,9517,0,0
238,13,48,1,3,1832,0,1
239,13,49,1,2,4326,0,1
240,13,50,5,3,12079,1,1
241,13,51,0,1,5578,0,1
242,13,52,2,4,1590,0,1
243,13,53,2,1,2614,0,0
244,13,54,2,5,2150,0,1
245,13,55,1,1,2359,0,0
246,13,56,2,2,5442,0,0
247,13,57,5,4,11225,1,1
248,13,58,1,0,2108,1,1
249,13,59,2,3,2174,1,0
250,13,60,4,0,1882,1,1
251,13,61,1,3,9030,0,1
252,13,62,0,0,943,1,0
253,13,63,3,2,6752,1,1
254,13,64,2,0,2355,1,1
255,13,65,4,2,8135,1,1
256,13,66,2,0,1917,0,0
257,13,67,4,5,9664,0,1
258,13,68,2,0,2398,1,1
259,13,69,0,4,1287,0,1
260,13,70,0,3,1596,0,1
261,13,71,3,0,1887,1,1
262,13,72,2,0,2173,0,0
263,13,73,2,4,1504,0,1
264,13,74,1,3,2103,0,1
265,13,75,2,1,2648,1,1
266,13,76,5,6,3629,1,0
267,13,77,2,0,3659,1,1
268,13,78,1,1,3903,1,0
269,13,79,0,2,1677,1,0
270,13,80,1,4,1024,0,1
271,13,81,2,1,2237,1,1
272,13,82,4,0,5201,0,0
273,13,83,5,0,1435,1,1
274,13,84,2,3,8584,0,1
275,13,85,0,1,2135,1,0
276,13,86,4,2,2029,1,1
277,13,87,3,2,3619,1,1
278,13,88,1,0,1823,1,1
279,13,89,1,0,7245,1,1
280,13,90,5,1,2863,1,1
281,13,91,0,1,1676,0,1
282,13,92,4,3,2210,1,1
283,13,93,2,3,1988,0,1
284,13,94,2,0,1683,1,1
285,13,95,2,1,1702,1,1
286,13,96,5,6,1498,0,1
287,13,97,0,4,2328,0,1
288,13,98,2,1,5841,1,1
289,13,99,3,0,2172,1,1
290,13,100,0,2,2046,1,0
291,14,1,2,0,2234,1,1
292,14,2,2,4,2158,0,1
293,14,3,1,5,1653,1,0
294,14,4,5,1,1243,1,1
295,14,5,6,2,1638,1,1
296,14,6,4,2,2355,1,1
297,14,7,2,4,2454,0,1
298,14,8,0,1,2968,1,0
299,14,9,0,2,1766,1,0
300,14,10,2,0,4742,1,1
301,14,11,4,5,2414,0,1
302,14,13,0,4,2062,0,1
303,14,14,0,5,1522,0,1
304,14,15,2,3,1340,0,1
305,14,16,2,4,2136,0,1
306,14,17,2,6,1237,0,1
307,14,18,5,3,2130,1,1
308,14,19,3,2,1489,0,0
309,14,20,1,1,2721,0,0
310,14,21,2,0,2406,1,1
311,14,22,3,4,2504,1,0
312,14,23,3,2,1349,1,1
313,14,24,6,6,1063,0,0
314,14,25,1,0,1917,0,0
315,14,26,1,3,2050,0,1
316,14,27,1,3,2353,1,0
317,14,28,1,0,1895,1,1
318,14,29,5,3,1493,1,1
319,14,30,0,2,2199,1,0
320,14,31,1,3,1902,0,1
321,14,32,2,4,1153,0,1
322,14,33,3,3,2024,1,0
323,14,34,3,0,1923,1,1
324,14,35,3,1,2772,1,1
325,14,36,5,2,2161,1,1
326,14,37,1,4,2088,1,0
327,14,38,4,5,1633,0,1
328,14,39,2,1,1656,0,0
329,14,40,0,4,2284,0,1
330,14,41,0,2,1293,0,1
331,14,42,4,1,1764,0,0
332,14,43,5,0,1420,1,1
333,14,44,5,2,2227,1,1
334,14,45,3,0,1535,1,1
335,14,46,1,5,1739,0,1
336,14,47,0,0,2245,1,0
337,14,48,0,3,1256,0,1
338,14,49,2,1,2104,1,1
339,14,50,2,0,1761,1,1
340,14,51,0,1,1298,0,1
341,14,52,5,0,2719,1,1
342,14,53,1,3,2205,0,1
343,14,54,0,4,2181,1,0
344,14,55,0,0,1324,0,0
345,14,58,1,3,1577,0,1
346,14,59,2,3,2291,0,1
347,14,61,2,4,1686,0,1
348,14,62,3,2,2180,0,0
349,14,63,3,0,2344,0,0
350,14,64,3,3,2085,1,0
351,14,65,0,1,2067,0,1
352,14,66,4,0,1465,1,1
353,14,67,3,5,1587,0,1
354,14,68,3,4,1778,1,0
355,14,69,3,3,1631,1,0
356,14,70,1,4,1592,1,0
357,14,71,3,2,1512,1,1
358,14,72,0,3,1656,1,0
359,14,73,0,1,1639,1,0
360,14,74,1,5,1322,0,1
361,14,75,4,3,1620,0,0
362,14,76,5,2,1247,0,0
363,14,77,0,2,1731,1,0
364,14,82,5,3,1789,1,1
365,14,83,3,1,1116,1,1
366,14,84,0,0,1578,0,0
367,14,85,1,2,2061,1,0
368,14,87,2,0,1442,1,1
369,14,88,4,3,1677,0,0
370,14,90,2,2,2116,1,0
371,14,91,5,3,1315,1,1
372,14,92,2,0,2174,0,0
373,14,93,3,8,1003,1,0
374,14,94,0,4,2759,0,1
375,14,96,1,2,2487,0,1
376,14,98,2,5,1045,0,1
377,14,99,3,2,2121,0,0
378,14,100,3,0,1819,0,0
379,16,1,5,5,1251,0,0
380,16,2,7,8,1038,0,1
381,16,3,5,2,1256,1,1
382,16,4,0,2,1788,0,1
383,16,5,2,6,2499,1,0
384,16,6,5,2,2868,0,0
385,16,7,6,5,1421,0,0
386,16,8,5,6,2446,0,1
387,16,9,3,6,1545,0,1
388,16,10,5,6,3669,0,1
389,16,11,8,6,1818,0,0
390,16,12,10,6,1181,1,1
391,16,13,3,8,1195,0,1
392,16,14,9,10,850,0,1
393,16,15,8,4,1262,0,0
394,16,16,6,3,996,1,1
395,16,17,9,9,1813,1,0
396,16,18,3,5,4718,0,1
397,16,19,5,10,696,0,1
398,16,20,5,2,5891,1,1
399,16,21,5,10,673,0,1
400,16,22,9,6,1172,1,1
401,16,23,5,8,1055,0,1
402,16,24,9,7,1359,0,0
403,16,25,5,8,1337,0,1
404,16,26,6,3,1598,1,1
405,16,27,10,9,818,1,1
406,16,28,6,3,1794,1,1
407,16,29,10,6,698,1,1
408,16,30,6,8,692,0,1
409,16,31,2,7,1482,0,1
410,16,32,2,3,1289,1,0
411,16,33,2,4,1058,0,1
412,16,34,6,9,2231,0,1
413,16,35,6,8,1352,0,1
414,16,36,5,5,2352,1,0
415,16,37,4,5,1021,1,0
416,16,38,3,2,1363,1,1
417,16,39,2,6,1699,1,0
418,16,40,3,6,2748,0,1
419,16,41,6,7,2726,1,0
420,16,42,5,5,2960,0,0
421,16,43,2,2,3257,1,0
422,16,44,10,7,1716,1,1
423,16,45,9,8,1646,1,1
424,16,46,5,6,2453,0,1
425,16,47,9,6,5252,1,1
426,16,48,6,5,1465,1,1
427,16,49,7,2,1355,1,1
428,16,50,6,2,1379,0,0
429,16,51,6,10,875,0,1
430,16,52,5,3,1277,0,0
431,16,53,6,6,867,1,0
432,16,54,8,8,2134,0,0
433,16,55,6,9,1567,0,1
434,16,56,8,5,1213,1,1
435,16,57,7,9,3139,0,1
436,16,58,3,7,1347,0,1
437,16,59,2,5,1307,0,1
438,16,60,9,8,1266,1,1
439,16,61,2,6,2430,0,1
440,16,62,9,6,1396,0,0
441,16,63,5,5,1187,0,0
442,16,64,6,9,1687,0,1
443,16,65,5,0,1134,1,1
444,16,66,6,7,1629,0,1
445,16,67,5,9,1054,0,1
446,16,68,8,10,1516,0,1
447,16,69,7,10,1444,0,1
448,16,70,7,6,1793,0,0
449,16,71,5,8,3844,0,1
450,16,72,0,2,1247,0,1
451,16,73,8,4,1153,1,1
452,16,74,9,6,1575,1,1
453,16,75,5,0,2018,1,1
454,16,76,8,10,1002,0,1
455,16,77,2,2,2051,0,0
456,16,78,3,6,2490,0,1
457,16,79,6,5,2328,1,1
458,16,80,5,10,1006,0,1
459,16,81,6,10,1301,0,1
460,16,82,6,10,5621,0,1
461,16,83,6,10,1293,0,1
462,16,84,7,6,1385,1,1
463,16,85,10,5,869,1,1
464,16,86,5,0,1749,1,1
465,16,87,8,5,772,1,1
466,16,88,7,9,1277,0,1
467,16,89,7,6,1256,1,1
468,16,90,9,10,1094,0,1
469,16,91,5,10,1420,0,1
470,16,92,6,6,1163,0,0
471,16,93,7,8,3523,1,0
472,16,94,9,9,1450,0,0
473,16,95,10,5,860,1,1
474,16,96,6,6,1056,0,0
475,16,97,7,5,1025,1,1
476,16,98,9,5,815,1,1
477,16,99,5,3,1503,1,1
478,16,100,4,5,2128,1,0
479,17,1,0,0,1191,1,0
480,17,2,0,1,1660,1,0
481,17,3,2,0,1338,0,0
482,17,4,0,0,1056,1,0
483,17,5,1,0,1073,1,1
484,17,6,2,4,1107,0,1
485,17,7,0,0,996,0,0
486,17,8,1,4,756,1,0
487,17,9,0,4,1367,1,0
488,17,10,5,5,998,1,0
489,17,11,2,4,1248,1,0
490,17,12,2,1,1376,0,0
491,17,13,2,3,1116,1,0
492,17,14,4,2,1161,1,1
493,17,15,0,3,1316,0,1
494,17,16,5,2,947,1,1
495,17,17,0,3,1311,1,0
496,17,18,4,0,1166,1,1
497,17,19,3,3,1271,0,0
498,17,20,0,0,1053,0,0
499,17,21,3,4,1193,1,0
500,17,22,5,6,1746,1,0
501,17,23,2,3,1494,0,1
502,17,24,0,3,1133,0,1
503,17,25,2,0,1143,1,1
504,17,26,5,2,1112,1,1
505,17,27,3,0,1132,1,1
506,17,28,2,5,1362,1,0
507,17,29,5,2,1725,1,1
508,17,30,0,2,1153,1,0
509,17,31,5,2,1675,0,0
510,17,32,1,2,1178,1,0
511,17,33,2,1,1829,1,1
512,17,34,2,2,1647,0,0
513,17,35,0,2,2216,0,1
514,17,36,2,2,1246,0,0
515,17,37,0,3,1633,1,0
516,17,38,2,2,992,1,0
517,17,39,3,1,1447,1,1
518,17,40,2,0,1453,1,1
519,17,41,3,2,1683,1,1
520,17,42,3,2,1494,1,1
521,17,43,3,0,1375,1,1
522,17,44,2,2,1400,0,0
523,17,45,6,2,1286,1,1
524,17,46,0,0,1399,1,0
525,17,47,6,1,1581,1,1
526,17,48,2,4,1062,1,0
527,17,49,1,2,1249,0,1
528,17,50,2,4,1073,1,0
529,17,51,1,2,1364,0,1
530,17,52,3,2,1006,1,1
531,17,53,3,2,1087,1,1
532,17,54,2,4,1166,0,1
533,17,55,0,2,1280,0,1
534,17,56,2,3,1034,0,1
535,17,57,0,2,1585,1,0
536,17,58,2,2,933,0,0
537,17,59,2,0,919,1,1
538,17,60,0,2,1001,0,1
539,17,61,3,5,1594,1,0
540,17,62,0,0,1169,1,0
541,17,63,3,2,1386,1,1
542,17,64,1,0,1132,1,1
543,17,65,0,0,1220,1,0
544,17,66,3,1,1025,1,1
545,17,67,0,3,1188,0,1
546,17,68,1,0,1282,1,1
547,17,69,2,0,1232,0,0
548,17,70,2,3,1224,1,0
549,17,71,0,5,819,0,1
550,17,72,0,3,1351,0,1
551,17,73,3,0,1347,1,1
552,17,74,0,2,886,0,1
553,17,75,0,0,1291,0,0
554,17,76,3,2,792,1,1
555,17,77,2,5,1666,0,1
556,17,78,3,2,874,1,1
557,17,79,2,2,778,1,0
558,17,80,4,2,1435,1,1
559,17,81,3,5,1401,0,1
560,17,82,3,3,957,1,0
561,17,83,3,2,908,1,1
562,17,84,4,0,991,1,1
563,17,85,2,3,1133,1,0
564,17,86,5,2,1009,1,1
565,17,87,5,3,1357,1,1
566,17,88,2,4,1676,0,1
567,17,89,5,2,803,1,1
568,17,90,2,0,3768,1,1
569,17,91,2,2,930,1,0
570,17,92,0,1,801,0,1
571,17,93,1,3,1041,0,1
572,17,94,2,4,929,0,1
573,17,95,2,2,1072,1,0
574,17,96,3,4,1638,0,1
575,17,97,2,2,1815,0,0
576,17,98,0,2,1092,0,1
577,17,99,1,5,2056,1,0
578,17,100,2,2,988,1,0
579,18,1,2,0,13456,1,1
580,18,2,8,8,6881,1,0
581,18,3,3,3,3420,0,0
582,18,4,4,3,5435,0,0
583,18,5,8,5,3374,1,1
584,18,6,5,0,6397,1,1
585,18,7,5,5,5665,1,0
586,18,8,4,5,5557,1,0
587,18,9,9,5,4688,1,1
588,18,10,6,2,8984,1,1
589,18,11,1,6,4972,0,1
590,18,12,4,5,3275,1,0
591,18,13,5,5,4538,1,0
592,18,14,7,5,4335,1,1
593,18,15,1,0,3051,1,1
594,18,16,6,4,2669,0,0
595,18,17,0,5,1531,0,1
596,18,18,5,10,1263,0,1
597,18,19,9,5,1071,1,1
598,18,20,5,0,2461,1,1
599,18,21,3,2,3950,1,1
600,18,22,4,5,4081,1,0
601,18,23,1,3,4340,0,1
602,18,24,9,5,2647,1,1
603,18,25,7,5,4659,1,1
604,18,26,9,6,2210,1,1
605,18,27,9,5,1862,1,1
606,18,28,7,8,3516,1,0
607,18,29,5,5,4445,0,0
608,18,30,9,5,2703,1,1
609,18,31,5,9,1365,0,1
610,18,32,7,8,4176,0,1
611,18,33,4,8,2372,0,1
612,18,34,7,4,5941,0,0
613,18,35,2,0,1858,1,1
614,18,36,9,5,2031,1,1
615,18,37,10,8,874,1,1
616,18,38,1,6,3726,0,1
617,18,39,2,4,2022,0,1
618,18,40,4,8,2169,0,1
619,18,41,1,5,4193,1,0
620,18,42,8,5,1722,1,1
621,18,43,1,2,5487,1,0
622,18,44,9,6,1579,1,1
623,18,45,4,5,2377,1,0
624,18,46,4,8,2274,1,0
625,18,47,8,5,2128,1,1
626,18,48,2,3,3828,0,1
627,18,49,5,5,2139,0,0
628,18,50,5,3,4134,1,1
629,18,51,8,5,2909,0,0
630,18,52,1,2,6905,1,0
631,18,53,4,5,4445,0,1
632,18,54,4,9,1372,0,1
633,18,55,0,5,1193,0,1
634,18,56,6,5,1686,1,1
635,18,57,3,5,2254,0,1
636,18,58,8,8,1744,0,0
637,18,59,2,5,1903,0,1
638,18,60,5,4,2293,1,1
639,18,61,6,5,5425,1,1
640,18,62,1,5,3031,0,1
641,18,63,2,5,3261,0,1
642,18,64,5,2,1211,1,1
643,18,65,5,8,1100,0,1
644,18,66,6,1,2572,0,0
645,18,67,2,5,857,0,1
646,18,68,1,6,1789,0,1
647,18,69,5,10,960,0,1
648,18,70,1,4,3105,0,1
649,18,71,1,5,1895,0,1
650,18,72,1,3,2411,0,1
651,18,73,6,5,6056,1,1
652,18,74,4,6,3226,1,0
653,18,75,6,5,4501,1,1
654,18,76,0,5,1237,0,1
655,18,77,5,6,8705,1,0
656,18,78,6,9,1369,0,1
657,18,79,5,8,6212,1,0
658,18,80,1,4,3172,1,0
659,18,81,6,6,3152,1,0
660,18,82,4,1,1513,1,1
661,18,83,9,5,968,1,1
662,18,84,2,4,5570,0,1
663,18,85,9,4,1460,1,1
664,18,86,4,5,986,1,0
665,18,87,5,5,6521,0,0
666,18,88,8,6,1579,1,1
667,18,89,2,0,1693,1,1
668,18,90,8,5,2064,1,1
669,18,91,6,5,3725,1,1
670,18,92,8,6,1011,1,1
671,18,93,5,7,2572,0,1
672,18,94,2,6,2047,0,1
673,18,95,4,3,4371,0,0
674,18,96,6,6,4315,1,0
675,18,97,7,5,3592,1,1
676,18,98,6,9,1045,0,1
677,18,99,6,5,2971,1,1
678,18,100,5,8,3023,1,0
679,19,1,7,5,1449,0,0
680,19,2,6,3,1918,0,0
681,19,3,5,6,1970,1,0
682,19,4,5,4,1908,1,1
683,19,5,0,4,1591,0,1
684,19,6,5,1,1263,1,1
685,19,7,5,4,1848,1,1
686,19,8,6,3,1242,1,1
687,19,9,5,7,1543,1,0
688,19,10,1,5,1719,0,1
689,19,11,4,8,1504,0,1
690,19,12,4,5,2224,0,1
691,19,13,6,7,1803,1,0
692,19,14,3,1,1864,1,1
693,19,15,7,9,1423,0,1
694,19,16,3,6,1661,1,0
695,19,17,3,5,1423,1,0
696,19,18,4,5,2023,0,1
697,19,19,7,6,2263,0,0
698,19,20,5,7,2828,0,1
699,19,21,1,5,1485,0,1
700,19,22,4,7,1584,0,1
701,19,23,9,7,1302,1,1
702,19,24,7,7,1544,1,0
703,19,25,1,4,1930,1,0
704,19,26,5,3,2213,1,1
705,19,27,5,5,1141,1,0
706,19,28,7,7,2022,1,0
707,19,29,3,7,2671,1,0
708,19,30,1,3,2963,0,1
709,19,31,5,6,1537,1,0
710,19,32,6,9,1785,0,1
711,19,33,4,4,1972,0,0
712,19,34,0,5,1331,0,1
713,19,35,5,6,2316,0,1
714,19,36,5,1,1738,1,1
715,19,37,3,3,1913,1,0
716,19,38,7,9,1337,0,1
717,19,39,4,0,1712,1,1
718,19,40,3,5,1296,0,1
719,19,41,9,9,3182,1,0
720,19,42,0,0,3189,0,0
721,19,43,7,5,1557,1,1
722,19,44,8,3,1187,1,1
723,19,45,4,4,2156,0,0
724,19,46,5,5,1550,0,0
725,19,47,4,5,1320,0,1
726,19,48,3,1,1260,1,1
727,19,49,4,5,1175,0,1
728,19,50,5,4,1632,1,1
729,19,51,5,5,1020,1,0
730,19,52,7,5,2123,1,1
731,19,53,1,5,1176,0,1
732,19,54,10,9,2459,1,1
733,19,55,7,5,1547,1,1
734,19,56,5,7,1629,1,0
735,19,57,5,7,2540,0,1
736,19,58,0,4,1896,0,1
737,19,59,6,6,2124,0,0
738,19,60,10,6,1293,1,1
739,19,61,4,2,2157,1,1
740,19,62,4,6,1678,0,1
741,19,63,7,4,1370,1,1
742,19,64,5,5,2575,0,0
743,19,65,3,4,2938,0,1
744,19,66,4,4,1584,1,0
745,19,67,6,8,1114,0,1
746,19,68,5,4,1318,1,1
747,19,69,5,7,1366,0,1
748,19,70,4,1,1285,1,1
749,19,71,4,0,1366,1,1
750,19,72,5,6,1640,1,0
751,19,73,1,4,2066,1,0
752,19,74,6,7,1558,0,1
753,19,75,5,4,2300,1,1
754,19,76,1,5,1576,0,1
755,19,77,7,7,1101,0,0
756,19,78,5,5,3419,0,0
757,19,79,6,5,2651,0,0
758,19,80,2,7,2587,0,1
759,19,81,4,4,2975,0,0
760,19,82,1,5,2090,0,1
761,19,83,6,1,1473,1,1
762,19,84,10,7,1682,1,1
763,19,85,3,8,1209,0,1
764,19,86,5,1,1461,1,1
765,19,87,1,3,1265,0,1
766,19,88,1,6,2135,0,1
767,19,89,1,4,1124,0,1
768,19,90,5,5,1500,0,0
769,19,91,5,10,1615,0,1
770,19,92,4,5,1181,0,1
771,19,93,5,10,1523,0,1
772,19,94,5,3,2642,1,1
773,19,95,6,1,1521,1,1
774,19,96,2,4,3612,0,1
775,19,97,4,5,1363,0,1
776,19,98,5,4,1533,1,1
777,19,99,3,6,1320,0,1
778,19,100,6,5,1812,1,1
779,20,1,4,2,1991,1,1
780,20,2,2,6,1813,0,1
781,20,3,1,3,2099,0,1
782,20,4,5,1,833,1,1
783,20,5,3,0,1612,1,1
784,20,6,2,3,1402,0,1
785,20,7,3,0,1655,1,1
786,20,8,2,2,2123,0,0
787,20,9,3,3,1239,1,0
788,20,10,2,4,1462,0,1
789,20,11,5,0,1514,1,1
790,20,12,3,6,1512,0,1
791,20,13,5,5,1373,1,0
792,20,14,0,4,1360,0,1
793,20,15,6,6,2498,1,0
794,20,16,4,0,1269,1,1
795,20,17,0,0,4295,0,0
796,20,18,5,4,1389,1,1
797,20,19,6,2,988,1,1
798,20,20,1,4,1165,0,1
799,20,21,7,4,939,1,1
800,20,22,6,3,1451,1,1
801,20,23,4,4,2815,1,0
802,20,24,0,2,1823,0,1
803,20,25,6,3,942,1,1
804,20,26,2,6,2146,0,1
805,20,27,7,4,761,1,1
806,20,28,2,1,2818,0,0
807,20,29,1,4,1256,0,1
808,20,30,5,3,1905,1,1
809,20,31,6,3,953,1,1
810,20,32,0,0,1375,1,0
811,20,33,0,3,1029,0,1
812,20,34,2,1,1284,1,1
813,20,35,6,2,965,1,1
814,20,36,2,3,1351,1,0
815,20,37,5,2,1728,1,1
816,20,38,1,4,2412,0,1
817,20,39,6,5,970,1,1
818,20,40,4,4,1162,1,0
819,20,41,8,6,1822,1,1
820,20,42,5,5,1355,1,0
821,20,43,4,0,1388,1,1
822,20,44,4,2,1376,1,1
823,20,45,3,1,1049,0,0
824,20,46,3,2,1101,1,1
825,20,47,6,3,1896,1,1
826,20,48,1,2,1273,0,1
827,20,49,0,0,1351,1,0
828,20,50,5,2,1417,1,1
829,20,51,0,3,2267,1,0
830,20,52,3,0,1217,0,0
831,20,53,1,6,1240,0,1
832,20,54,6,5,1578,0,0
833,20,55,2,1,1392,1,1
834,20,56,4,0,1147,1,1
835,20,57,4,0,903,1,1
836,20,58,0,1,2340,0,1
837,20,59,4,2,2217,1,1
838,20,60,3,2,1348,1,1
839,20,61,3,0,1347,1,1
840,20,62,6,3,1235,0,0
841,20,63,3,6,1263,0,1
842,20,64,2,1,1133,1,1
843,20,65,4,6,1049,1,0
844,20,66,4,6,759,0,1
845,20,67,3,0,1070,1,1
846,20,68,6,4,1440,1,1
847,20,69,6,5,785,1,1
848,20,70,1,6,1102,0,1
849,20,71,4,0,1001,1,1
850,20,72,6,3,1702,1,1
851,20,73,2,0,1929,1,1
852,20,74,2,5,1405,0,1
853,20,75,7,5,1496,1,1
854,20,76,2,5,931,0,1
855,20,77,0,1,1168,0,1
856,20,78,0,0,1385,1,0
857,20,79,2,5,1408,0,1
858,20,80,0,3,1153,0,1
859,20,81,2,3,2152,0,1
860,20,82,5,3,1860,1,1
861,20,83,2,0,1077,1,1
862,20,84,0,3,899,0,1
863,20,85,8,9,951,1,0
864,20,86,4,2,1165,1,1
865,20,87,3,5,972,0,1
866,20,88,3,4,858,0,1
867,20,89,1,2,1327,1,0
868,20,90,3,2,1202,0,0
869,20,91,3,6,1037,1,0
870,20,92,6,5,1539,1,1
871,20,93,6,2,890,1,1
872,20,94,5,4,1545,1,1
873,20,95,3,4,946,0,1
874,20,96,0,5,935,0,1
875,20,97,4,5,870,0,1
876,20,98,6,9,844,1,0
877,20,99,1,2,1090,0,1
878,20,100,1,5,784,0,1
879,22,1,6,2,2882,0,0
880,22,2,3,0,1675,1,1
881,22,3,9,7,2113,1,1
882,22,4,4,3,4144,0,0
883,22,5,3,5,2248,0,1
884,22,6,3,5,3736,1,0
885,22,7,8,5,1532,1,1
886,22,8,7,6,3383,0,0
887,22,9,7,8,1926,0,1
888,22,10,6,8,1577,0,1
889,22,11,3,7,1843,0,1
890,22,12,3,7,2910,0,1
891,22,13,7,4,3920,0,0
892,22,14,4,8,2378,0,1
893,22,15,4,7,2078,0,1
894,22,16,7,3,1306,1,1
895,22,17,7,10,931,0,1
896,22,18,7,7,2107,1,0
897,22,19,6,8,1289,0,1
898,22,20,6,8,3696,0,1
899,22,21,6,3,1575,1,1
900,22,22,3,8,1558,0,1
901,22,23,7,7,3750,0,0
902,22,24,4,8,1695,0,1
903,22,25,8,4,1476,1,1
904,22,26,4,4,1925,0,0
905,22,27,4,8,1212,0,1
906,22,28,7,9,1289,0,1
907,22,29,7,4,1231,1,1
908,22,30,7,7,2038,1,0
909,22,31,8,3,1038,1,1
910,22,32,7,5,3634,0,0
911,22,33,6,6,1674,1,0
912,22,34,1,2,2505,0,1
913,22,35,3,3,1341,0,0
914,22,36,4,7,1185,0,1
915,22,37,0,3,1783,0,1
916,22,38,3,6,1095,0,1
917,22,39,4,8,1074,0,1
918,22,40,7,5,1261,1,1
919,22,41,3,5,3131,0,1
920,22,42,8,4,1825,1,1
921,22,43,7,10,819,0,1
922,22,44,1,6,1446,0,1
923,22,45,7,4,1297,1,1
924,22,46,2,7,1195,0,1
925,22,47,3,6,2524,0,1
926,22,48,6,4,1740,1,1
927,22,49,1,1,3778,0,0
928,22,50,10,6,1111,1,1
929,22,51,4,8,1075,0,1
930,22,52,4,3,2015,1,1
931,22,53,3,7,1096,0,1
932,22,54,7,4,1448,1,1
933,22,55,4,5,3189,0,1
934,22,56,7,5,2002,1,1
935,22,57,4,3,1998,0,0
936,22,58,6,10,653,0,1
937,22,59,5,3,2799,1,1
938,22,60,7,5,2864,0,0
939,22,61,7,3,1863,1,1
940,22,62,7,8,1187,0,1
941,22,63,0,3,1553,0,1
942,22,64,3,0,1501,1,1
943,22,65,7,3,2385,1,1
944,22,66,6,6,2169,0,0
945,22,67,4,4,3734,0,0
946,22,68,4,6,4746,1,0
947,22,69,6,8,1232,0,1
948,22,70,0,5,2480,0,1
949,22,71,8,6,1472,1,1
950,22,72,5,4,2391,0,0
951,22,73,4,7,834,0,1
952,22,74,7,6,3618,1,1
953,22,75,4,3,2661,0,0
954,22,76,6,5,1066,0,0
955,22,77,4,0,3473,0,0
956,22,78,7,8,957,0,1
957,22,79,6,6,3199,0,0
958,22,80,8,8,2604,1,0
959,22,81,8,7,2905,0,0
960,22,82,6,1,2354,1,1
961,22,83,7,8,1606,0,1
962,22,84,4,7,1350,0,1
963,22,85,3,8,2045,0,1
964,22,86,7,8,4107,1,0
965,22,87,6,8,1067,0,1
966,22,88,0,0,1583,1,0
967,22,89,3,4,1059,0,1
968,22,90,4,6,1960,0,1
969,22,91,7,7,3333,1,0
970,22,92,2,7,1374,0,1
971,22,93,4,3,1623,1,1
972,22,94,3,4,3452,1,0
973,22,95,6,3,2465,0,0
974,22,96,8,3,1163,1,1
975,22,97,5,7,2099,0,1
976,22,98,6,5,887,0,0
977,22,99,7,4,1276,1,1
978,22,100,6,5,1169,1,1
979,23,1,6,4,6078,1,1
980,23,2,4,5,12912,1,0
981,23,3,0,0,3209,0,0
982,23,4,4,3,3375,1,1
983,23,5,3,3,1993,1,0
984,23,7,3,6,3546,0,1
985,23,8,5,1,2108,1,1
986,23,9,6,5,8479,1,1
987,23,10,1,3,2847,0,1
988,23,11,5,5,2414,1,0
989,23,12,3,5,2007,1,0
990,23,13,0,3,1596,0,1
991,23,14,4,5,1572,0,1
992,23,15,4,7,2445,0,1
993,23,16,5,4,1417,1,1
994,23,17,7,8,2606,0,1
995,23,18,1,4,2056,0,1
996,23,19,1,4,1253,0,1
997,23,20,2,1,2059,1,1
998,23,21,2,3,2779,1,0
999,23,22,8,3,1058,1,1
1000,23,23,6,3,2201,1,1
1001,23,24,3,5,1252,0,1
1002,23,25,5,5,2680,1,0
1003,23,26,1,2,4294,0,1
1004,23,27,8,5,1682,1,1
1005,23,28,2,6,1628,0,1
1006,23,29,5,3,2560,1,1
1007,23,30,0,2,2393,0,1
1008,23,31,4,5,1129,0,1
1009,23,32,6,1,1591,1,1
1010,23,33,5,5,2352,1,0
1011,23,34,8,5,1419,1,1
1012,23,35,5,2,3235,1,1
1013,23,36,4,6,4921,1,0
1014,23,37,8,5,1568,1,1
1015,23,38,0,1,1978,1,0
1016,23,39,4,3,1521,1,1
1017,23,40,5,3,5474,0,0
1018,23,41,3,8,1111,0,1
1019,23,42,1,4,1420,0,1
1020,23,43,1,3,1736,1,0
1021,23,44,0,3,2168,0,1
1022,23,45,5,5,3378,0,0
1023,23,46,7,3,1023,1,1
1024,23,47,4,5,1825,0,1
1025,23,48,1,5,955,0,1
1026,23,49,6,6,13278,1,0
1027,23,50,2,2,1164,0,0
1028,23,51,4,2,1308,0,0
1029,23,52,8,7,1213,1,1
1030,23,53,4,5,1288,0,1
1031,23,54,1,3,1835,0,1
1032,23,55,5,5,2091,1,0
1033,23,56,2,2,1247,1,0
1034,23,57,3,1,2587,1,1
1035,23,58,1,0,2246,1,1
1036,23,59,6,1,1180,1,1
1037,23,60,0,2,1254,0,1
1038,23,61,3,3,2461,0,0
1039,23,62,6,1,1855,1,1
1040,23,63,1,5,1286,0,1
1041,23,64,5,5,2532,0,0
1042,23,65,1,4,4105,0,1
1043,23,66,3,4,2309,0,1
1044,23,67,5,6,2873,0,1
1045,23,68,2,0,2019,1,1
1046,23,69,8,3,1111,1,1
1047,23,70,5,7,990,0,1
1048,23,71,5,3,1452,1,1
1049,23,72,3,0,1400,1,1
1050,23,73,3,1,2473,1,1
1051,23,74,5,7,1820,0,1
1052,23,75,3,5,2384,1,0
1053,23,76,3,3,1670,1,0
1054,23,77,2,3,2015,0,1
1055,23,78,3,4,3757,1,0
1056,23,79,4,3,1693,1,1
1057,23,80,5,1,1281,1,1
1058,23,81,2,0,2734,1,1
1059,23,82,6,5,8826,0,0
1060,23,83,3,5,1125,0,1
1061,23,84,0,1,1513,1,0
1062,23,85,5,3,2400,1,1
1063,23,86,6,3,1418,1,1
1064,23,87,1,2,2112,0,1
1065,23,88,7,3,1715,1,1
1066,23,89,3,1,1479,1,1
1067,23,90,4,1,3241,1,1
1068,23,91,2,1,1673,0,0
1069,23,92,3,2,3366,0,0
1070,23,93,5,3,1347,1,1
1071,23,94,1,1,1190,1,0
1072,23,95,8,4,1684,1,1
1073,23,96,4,4,2415,0,0
1074,23,97,8,8,2500,1,0
1075,23,98,4,5,2400,0,1
1076,23,99,4,5,2289,0,1
1077,23,100,3,6,2513,0,1
1078,25,1,4,2,11119,1,1
1079,25,2,1,4,1769,0,1
1080,25,3,5,6,1485,1,0
1081,25,4,4,6,3147,0,1
1082,25,5,8,3,2399,1,1
1083,25,6,3,7,1480,0,1
1084,25,7,4,3,1514,1,1
1085,25,8,4,8,1828,0,1
1086,25,9,4,6,3286,0,1
1087,25,10,8,3,1679,1,1
1088,25,11,1,0,1658,1,1
1089,25,12,1,1,2726,0,0
1090,25,13,3,3,2930,0,0
1091,25,15,5,2,3031,1,1
1092,25,16,3,6,11939,1,0
1093,25,17,4,6,12126,1,0
1094,25,18,6,5,1724,1,1
1095,25,19,2,2,8943,1,0
1096,25,20,4,2,3101,1,1
1097,25,21,5,0,3303,1,1
1098,25,22,1,6,3804,0,1
1099,25,23,0,1,6525,0,1
1100,25,24,7,3,7554,1,1
1101,25,25,1,1,17698,0,0
1102,25,26,7,6,3935,1,1
1103,25,27,3,6,5490,0,1
1104,25,28,2,1,4269,0,0
1105,25,29,3,2,1963,1,1
1106,25,30,5,6,2735,1,0
1107,25,31,2,0,11049,1,1
1108,25,32,2,1,2256,1,1
1109,25,33,1,0,5869,1,1
1110,25,34,2,1,1804,1,1
1111,25,35,6,3,5472,0,0
1112,25,36,8,5,1852,1,1
1113,25,37,2,3,3061,1,0
1114,25,38,8,3,1684,1,1
1115,25,39,7,6,3705,1,1
1116,25,40,7,8,18102,0,1
1117,25,41,4,2,9584,1,1
1118,25,42,3,5,1519,0,1
1119,25,43,6,6,2038,1,0
1120,25,44,1,4,1393,0,1
1121,25,45,8,7,1877,0,0
1122,25,46,2,5,2739,0,1
1123,25,47,1,4,3034,1,0
1124,25,48,6,5,2913,0,0
1125,25,49,3,5,7596,0,1
1126,25,50,4,1,1823,0,0
1127,25,51,3,6,1427,0,1
1128,25,52,4,0,1238,1,1
1129,25,53,7,4,1415,1,1
1130,25,54,3,5,3655,0,1
1131,25,55,7,4,881,1,1
1132,25,56,3,0,1126,1,1
1133,25,57,3,8,2085,0,1
1134,25,58,6,1,1137,1,1
1135,25,59,6,4,1551,1,1
1136,25,60,2,3,2318,1,0
1137,25,61,3,5,2388,0,1
1138,25,62,4,5,2809,0,1
1139,25,63,5,4,1498,1,1
1140,25,64,1,3,1642,0,1
1141,25,65,3,1,2052,1,1
1142,25,66,6,4,2178,1,1
1143,25,67,8,6,1349,1,1
1144,25,68,5,3,1380,1,1
1145,25,69,3,4,3174,1,0
1146,25,70,5,5,1716,0,0
1147,25,71,6,8,1280,0,1
1148,25,72,4,5,1549,0,1
1149,25,73,3,2,3354,0,0
1150,25,74,5,5,1790,1,0
1151,25,75,8,6,1514,1,1
1152,25,76,1,0,1718,1,1
1153,25,77,8,5,2379,1,1
1154,25,78,8,5,3016,1,1
1155,25,79,3,1,1754,1,1
1156,25,80,3,0,1217,1,1
1157,25,81,1,6,1084,0,1
1158,25,82,2,5,1649,0,1
1159,25,83,2,1,1457,1,1
1160,25,84,0,3,1045,0,1
1161,25,85,3,8,1222,0,1
1162,25,86,3,3,3714,0,0
1163,25,87,4,0,1065,1,1
1164,25,88,4,3,1576,1,1
1165,25,89,6,5,3697,0,0
1166,25,90,6,5,1572,1,1
1167,25,91,4,0,1230,1,1
1168,25,92,2,0,1237,1,1
1169,25,93,3,0,1271,1,1
1170,25,94,1,2,1310,0,1
1171,25,95,8,4,3056,1,1
1172,25,96,4,7,2225,0,1
1173,25,97,1,5,1693,0,1
1174,25,98,3,3,3623,1,0
1175,25,99,5,5,1250,1,0
1176,25,100,6,8,2282,0,1
1177,26,1,5,0,1089,1,1
1178,26,2,1,3,1017,0,1
1179,26,3,5,2,1517,1,1
1180,26,4,1,3,1762,0,1
1181,26,5,2,1,1223,1,1
1182,26,6,5,4,1407,0,0
1183,26,7,3,4,1444,0,1
1184,26,8,6,8,1289,0,1
1185,26,9,2,6,1886,0,1
1186,26,10,1,1,2776,0,0
1187,26,11,4,8,1371,0,1
1188,26,12,8,3,1425,1,1
1189,26,14,5,1,1158,1,1
1190,26,15,4,3,2254,0,0
1191,26,16,2,5,3316,1,0
1192,26,17,2,5,1839,0,1
1193,26,18,5,1,1119,1,1
1194,26,20,3,1,1934,1,1
1195,26,22,6,6,1966,1,0
1196,26,23,3,1,5535,1,1
1197,26,24,5,3,6996,0,0
1198,26,26,5,1,1807,1,1
1199,26,27,5,3,3177,1,1
1200,26,29,5,3,1644,1,1
1201,26,32,6,3,1073,1,1
1202,26,33,6,2,1454,1,1
1203,26,34,3,5,1670,0,1
1204,26,35,4,2,1092,1,1
1205,26,36,3,0,1147,1,1
1206,26,37,3,3,954,0,0
1207,26,38,1,6,1057,0,1
1208,26,39,8,3,1407,1,1
1209,26,40,0,4,1817,0,1
1210,26,41,5,2,1453,1,1
1211,26,42,8,5,1008,1,1
1212,26,43,3,2,1445,0,0
1213,26,45,4,6,1171,0,1
1214,26,46,2,0,2804,0,0
1215,26,47,7,10,1490,0,1
1216,26,48,5,8,1295,0,1
1217,26,49,2,3,1875,0,1
1218,26,51,0,3,1004,0,1
1219,26,52,1,1,997,1,0
1220,26,53,6,3,1142,1,1
1221,26,54,1,5,1199,0,1
1222,26,55,4,8,976,0,1
1223,26,56,2,6,1055,0,1
1224,26,57,4,2,4113,0,0
1225,26,58,6,3,1088,1,1
1226,26,59,5,1,1220,1,1
1227,26,60,6,3,901,1,1
1228,26,63,5,3,1292,1,1
1229,26,65,6,5,1972,1,1
1230,26,66,3,2,3155,0,0
1231,26,67,0,2,1982,0,1
1232,26,68,2,3,2409,1,0
1233,26,69,6,8,7261,1,0
1234,26,71,6,5,1629,1,1
1235,26,72,4,2,1517,0,0
1236,26,73,1,5,1209,0,1
1237,26,74,3,5,1173,0,1
1238,26,76,0,1,1180,0,1
1239,26,77,3,8,1097,0,1
1240,26,78,3,8,1107,0,1
1241,26,79,2,1,1752,0,0
1242,26,80,3,8,940,0,1
1243,26,81,5,4,2599,0,0
1244,26,82,6,5,1198,1,1
1245,26,86,1,5,1647,0,1
1246,26,89,6,8,787,0,1
1247,26,96,6,3,774,0,0
1248,26,97,5,4,1867,1,1
1249,26,100,5,0,1066,1,1
1250,27,1,2,0,3107,1,1
1251,27,2,6,4,7607,0,0
1252,27,3,2,0,9073,0,0
1253,27,4,2,3,7259,0,1
1254,27,5,2,2,4987,1,0
1255,27,6,2,3,6356,0,1
1256,27,7,1,4,4219,1,0
1257,27,8,2,0,2654,1,1
1258,27,9,1,4,1487,0,1
1259,27,10,2,3,1973,1,0
1260,27,11,2,4,1810,0,1
1261,27,12,3,2,5421,0,0
1262,27,13,4,4,2389,1,0
1263,27,14,0,2,7926,0,1
1264,27,15,2,4,3705,1,0
1265,27,16,2,2,3429,0,0
1266,27,17,0,2,6268,0,1
1267,27,18,2,2,1394,1,0
1268,27,19,3,1,5889,0,0
1269,27,20,0,1,5643,0,1
1270,27,21,2,0,8041,1,1
1271,27,22,0,5,4770,1,0
1272,27,23,0,0,3975,1,0
1273,27,24,0,3,3922,0,1
1274,27,25,2,2,6873,1,0
1275,27,26,3,0,5422,1,1
1276,27,27,0,2,6006,0,1
1277,27,28,0,0,2627,1,0
1278,27,29,2,0,5749,1,1
1279,27,30,2,2,6513,0,0
1280,27,31,0,0,5192,0,0
1281,27,32,0,0,2634,0,0
1282,27,33,1,1,2183,1,0
1283,27,34,1,4,1306,0,1
1284,27,35,2,0,2540,0,0
1285,27,36,0,2,3483,0,1
1286,27,37,2,2,7668,0,0
1287,27,38,3,0,1214,0,0
1288,27,39,2,0,1227,0,0
1289,27,40,0,0,3269,0,0
1290,27,41,1,2,2456,1,0
1291,27,42,2,2,2614,0,0
1292,27,43,2,4,1827,0,1
1293,27,44,2,0,1574,1,1
1294,27,45,4,6,2741,1,0
1295,27,46,2,7,3444,0,1
1296,27,47,2,6,1790,0,1
1297,27,48,0,3,3386,0,1
1298,27,49,0,1,1907,0,1
1299,27,50,3,4,1222,0,1
1300,27,51,2,0,6633,1,1
1301,27,52,1,4,1533,1,0
1302,27,53,4,4,939,0,0
1303,27,54,6,4,2201,1,1
1304,27,55,3,2,1801,1,1
1305,27,56,4,1,1025,1,1
1306,27,57,2,1,3421,0,0
1307,27,58,4,4,1006,1,0
1308,27,59,3,2,2041,0,0
1309,27,60,0,2,1922,1,0
1310,27,61,2,0,2642,1,1
1311,27,62,2,0,1996,1,1
1312,27,63,0,2,7443,1,0
1313,27,64,3,2,2382,0,0
1314,27,65,3,2,1577,0,0
1315,27,66,1,5,1425,1,0
1316,27,67,4,2,1144,1,1
1317,27,68,2,0,3993,1,1
1318,27,69,1,3,2633,0,1
1319,27,70,0,2,1555,1,0
1320,27,71,4,5,831,1,0
1321,27,72,7,4,3024,0,0
1322,27,73,4,0,4351,0,0
1323,27,74,6,7,2286,0,1
1324,27,75,4,2,2130,0,0
1325,27,76,3,0,4630,0,0
1326,27,77,0,0,2639,0,0
1327,27,78,4,8,2518,0,1
1328,27,79,2,4,1493,0,1
1329,27,80,2,2,1970,0,0
1330,27,81,0,4,926,0,1
1331,27,82,1,6,1331,0,1
1332,27,83,1,5,2524,0,1
1333,27,84,4,7,1302,1,0
1334,27,85,4,2,1347,1,1
1335,27,86,4,0,3963,0,0
1336,27,87,4,1,1106,1,1
1337,27,88,1,0,1289,0,0
1338,27,89,4,2,1171,0,0
1339,27,90,2,6,2080,1,0
1340,27,91,3,0,4290,0,0
1341,27,92,0,2,3373,1,0
1342,27,93,7,4,1363,1,1
1343,27,94,4,4,873,0,0
1344,27,95,3,0,3638,1,1
1345,27,96,2,0,4788,1,1
1346,27,97,2,1,1204,0,0
1347,27,98,2,2,2079,1,0
1348,27,99,5,2,1193,1,1
1349,27,100,0,2,3262,1,0
1350,28,1,2,0,2556,1,1
1351,28,2,6,4,1060,1,1
1352,28,3,2,4,2245,1,0
1353,28,4,4,0,1421,1,1
1354,28,5,5,10,1365,0,1
1355,28,6,6,4,1349,1,1
1356,28,7,6,5,1642,1,1
1357,28,8,6,2,1842,1,1
1358,28,12,4,4,1924,1,0
1359,28,13,6,3,1251,1,1
1360,28,14,2,1,1613,1,1
1361,28,15,5,4,1911,1,1
1362,28,16,3,6,1381,0,1
1363,28,17,2,0,1811,1,1
1364,28,18,6,5,1808,1,1
1365,28,19,1,3,1664,0,1
1366,28,20,3,4,1241,1,0
1367,28,21,0,2,1335,1,0
1368,28,22,7,4,1179,1,1
1369,28,23,0,0,1098,0,0
1370,28,24,2,4,2248,0,1
1371,28,25,0,1,1294,1,0
1372,28,26,6,1,1483,1,1
1373,28,27,3,5,1701,1,0
1374,28,28,2,0,2082,1,1
1375,28,29,1,3,1624,0,1
1376,28,30,3,6,1112,0,1
1377,28,31,5,8,834,0,1
1378,28,32,3,2,1120,1,1
1379,28,33,6,4,823,1,1
1380,28,34,0,2,952,0,1
1381,28,35,8,5,807,1,1
1382,28,36,1,2,1183,0,1
1383,28,37,4,0,2373,1,1
1384,28,38,1,1,1830,0,0
1385,28,39,1,6,2044,0,1
1386,28,40,4,0,1427,1,1
1387,28,41,3,2,1286,0,0
1388,28,42,0,4,1267,0,1
1389,28,43,1,3,1711,1,0
1390,28,44,4,6,954,0,1
1391,28,45,1,6,1336,0,1
1392,28,46,3,6,1357,0,1
1393,28,47,0,4,874,0,1
1394,28,48,3,0,653,0,0
1395,28,49,10,5,1075,1,1
1396,28,50,2,1,1031,1,1
1397,28,51,6,4,795,1,1
1398,28,52,3,0,975,1,1
1399,28,53,1,2,1324,0,1
1400,28,54,4,3,931,1,1
1401,28,55,0,4,1962,0,1
1402,28,56,7,6,1036,1,1
1403,28,57,6,4,1440,0,0
1404,28,58,7,10,1326,0,1
1405,28,59,1,0,2154,1,1
1406,28,60,4,1,1089,1,1
1407,28,61,6,2,1731,1,1
1408,28,62,10,6,3717,1,1
1409,28,63,4,0,2823,1,1
1410,28,64,1,4,1634,0,1
1411,28,65,8,8,1289,1,0
1412,28,66,7,6,3278,1,1
1413,28,67,3,0,2557,1,1
1414,28,68,0,1,1276,0,1
1415,28,69,5,9,1415,0,1
1416,28,70,6,10,1333,0,1
1417,28,71,1,2,2026,1,0
1418,28,72,5,4,1762,1,1
1419,28,73,1,0,2058,0,0
1420,28,74,3,6,4378,0,1
1421,28,75,5,0,1164,1,1
1422,28,76,5,2,1805,1,1
1423,28,77,7,6,1079,1,1
1424,28,78,5,4,1019,1,1
1425,28,79,2,1,2937,1,1
1426,28,80,2,2,2245,1,0
1427,28,81,3,0,1331,1,1
1428,28,82,7,3,1041,1,1
1429,28,83,2,0,1327,1,1
1430,28,84,7,10,3244,0,1
1431,28,85,0,5,1226,0,1
1432,28,86,2,0,992,1,1
1433,28,87,7,10,1618,0,1
1434,28,88,7,2,1268,1,1
1435,28,89,2,1,2823,1,1
1436,28,90,1,0,1104,0,0
1437,28,91,4,3,1405,1,1
1438,28,92,6,5,1059,1,1
1439,28,93,1,0,1225,1,1
1440,28,94,4,1,1447,1,1
1441,28,95,1,1,1167,0,0
1442,28,96,10,10,4372,0,0
1443,28,97,1,4,1578,0,1
1444,28,98,3,1,1927,1,1
1445,28,99,10,6,1833,1,1
1446,28,100,0,0,1376,0,0
1447,29,1,5,8,8021,0,1
1448,29,2,3,6,1644,0,1
1449,29,3,5,9,5266,1,0
1450,29,4,8,5,8522,1,1
1451,29,5,2,4,8759,0,1
1452,29,6,8,9,6358,1,0
1453,29,7,9,9,2827,0,0
1454,29,8,4,9,2124,0,1
1455,29,9,3,5,12054,0,1
1456,29,10,2,5,4882,0,1
1457,29,11,2,3,7233,0,1
1458,29,12,4,4,4082,0,0
1459,29,13,3,0,9478,1,1
1460,29,14,5,4,1848,1,1
1461,29,15,0,4,1661,0,1
1462,29,16,6,8,5003,1,0
1463,29,17,2,3,7804,1,0
1464,29,18,6,9,4169,0,1
1465,29,19,7,4,2516,1,1
1466,29,20,4,3,17782,1,1
1467,29,21,2,3,5945,1,0
1468,29,22,7,5,1997,1,1
1469,29,23,3,2,6122,1,1
1470,29,24,5,2,2289,1,1
1471,29,25,5,4,6424,1,1
1472,29,26,10,6,4803,1,1
1473,29,27,2,3,8786,0,1
1474,29,28,4,5,4003,0,1
1475,29,29,5,3,2636,1,1
1476,29,30,0,4,4588,0,1
1477,29,31,5,2,2875,1,1
1478,29,32,10,6,2147,1,1
1479,29,33,2,3,12735,0,1
1480,29,34,4,3,2655,1,1
1481,29,35,6,3,2077,1,1
1482,29,36,10,7,2962,1,1
1483,29,37,5,3,2774,1,1
1484,29,38,2,4,3965,0,1
1485,29,39,4,9,17733,1,0
1486,29,40,9,5,1767,1,1
1487,29,41,3,0,2598,1,1
1488,29,42,6,2,2908,1,1
1489,29,43,0,2,4158,1,0
1490,29,44,5,4,1981,1,1
1491,29,45,2,2,4302,0,0
1492,29,46,3,3,8470,1,0
1493,29,47,5,5,12403,1,0
1494,29,48,0,5,2171,0,1
1495,29,49,2,5,1670,0,1
1496,29,50,4,3,2282,1,1
1497,29,51,9,9,1737,1,0
1498,29,52,2,3,1361,0,1
1499,29,53,5,2,1172,1,1
1500,29,54,8,6,3279,0,0
1501,29,55,0,5,1728,0,1
1502,29,56,5,2,1498,1,1
1503,29,57,4,4,3282,0,0
1504,29,58,3,3,3769,0,0
1505,29,59,7,6,2885,1,1
1506,29,60,5,3,2179,1,1
1507,29,61,9,7,4221,1,1
1508,29,62,3,4,1226,0,1
1509,29,63,8,7,2498,1,1
1510,29,64,8,8,4061,0,0
1511,29,65,0,2,2455,1,0
1512,29,66,4,3,5458,1,1
1513,29,67,9,4,1402,1,1
1514,29,68,10,7,5557,1,1
1515,29,69,6,8,2975,0,1
1516,29,70,3,4,5618,0,1
1517,29,71,10,8,1906,1,1
1518,29,72,2,6,2551,0,1
1519,29,73,2,0,4231,1,1
1520,29,74,4,3,8907,0,0
1521,29,75,10,7,5258,1,1
1522,29,76,4,2,2372,1,1
1523,29,77,0,5,3323,0,1
1524,29,78,3,2,1682,1,1
1525,29,79,7,3,1391,1,1
1526,29,80,6,5,1623,1,1
1527,29,81,5,2,3447,1,1
1528,29,82,7,6,2720,1,1
1529,29,83,2,7,3762,0,1
1530,29,84,4,7,2008,0,1
1531,29,85,2,2,2018,1,0
1532,29,86,5,9,3695,0,1
1533,29,87,7,9,1817,0,1
1534,29,88,10,6,2728,1,1
1535,29,89,7,7,3855,1,0
1536,29,90,4,2,5726,0,0
1537,29,91,10,9,3124,1,1
1538,29,92,3,0,11956,1,1
1539,29,93,9,7,1709,1,1
1540,29,94,4,3,2096,1,1
1541,29,95,5,0,2252,1,1
1542,29,96,3,8,3654,0,1
1543,29,97,9,10,3115,1,0
1544,29,98,4,3,2641,0,0
1545,29,99,2,2,4510,0,0
1546,29,100,3,8,1646,0,1
1547,30,1,7,8,6581,1,0
1548,30,2,0,2,6936,0,1
1549,30,3,3,2,5769,1,1
1550,30,4,2,8,4635,0,1
1551,30,5,2,2,6939,1,0
1552,30,6,8,2,3887,1,1
1553,30,7,1,4,7344,0,1
1554,30,8,6,7,3594,0,1
1555,30,9,1,8,2067,0,1
1556,30,10,0,0,8326,1,0
1557,30,11,5,2,2964,1,1
1558,30,12,7,4,3184,1,1
1559,30,13,3,4,3829,0,1
1560,30,14,0,2,4876,1,0
1561,30,15,6,0,3928,1,1
1562,30,16,4,2,5140,1,1
1563,30,17,1,0,8042,0,0
1564,30,18,6,10,2382,0,1
1565,30,19,2,3,2776,0,1
1566,30,20,2,6,5752,0,1
1567,30,21,3,3,3339,1,0
1568,30,22,1,3,4236,0,1
1569,30,23,0,7,3070,0,1
1570,30,24,3,7,6044,0,1
1571,30,25,2,5,3929,0,1
1572,30,26,6,5,3480,0,0
1573,30,27,8,3,2142,1,1
1574,30,28,9,10,4763,0,1
1575,30,29,9,7,6385,1,1
1576,30,30,1,2,6389,0,1
1577,30,31,3,2,4831,0,0
1578,30,32,7,0,4245,1,1
1579,30,33,1,0,5165,1,1
1580,30,34,0,2,4356,1,0
1581,30,35,8,3,1983,1,1
1582,30,36,7,3,2888,1,1
1583,30,37,2,3,2856,0,1
1584,30,38,10,10,2966,0,0
1585,30,39,10,10,4020,1,0
1586,30,40,5,0,2179,1,1
1587,30,41,0,0,6425,0,0
1588,30,42,2,0,3625,1,1
1589,30,43,2,0,5667,0,0
1590,30,44,2,1,3908,1,1
1591,30,45,3,0,5961,1,1
1592,30,46,2,7,2667,0,1
1593,30,47,2,7,5132,0,1
1594,30,48,0,0,2994,0,0
1595,30,49,3,10,2888,0,1
1596,30,50,8,1,3319,1,1
1597,30,51,7,1,1705,1,1
1598,30,52,5,7,3931,1,0
1599,30,53,2,1,4315,0,0
1600,30,54,0,0,6123,1,0
1601,30,55,2,8,3040,0,1
1602,30,56,10,3,2777,1,1
1603,30,57,7,1,1728,1,1
1604,30,58,4,0,2580,1,1
1605,30,59,10,3,1775,1,1
1606,30,60,3,1,2145,1,1
1607,30,61,0,3,3470,0,1
1608,30,62,1,0,2519,1,1
1609,30,63,0,0,2824,1,0
1610,30,64,1,5,4581,0,1
1611,30,65,2,2,3473,1,0
1612,30,66,3,0,3898,1,1
1613,30,67,3,2,3608,1,1
1614,30,68,4,2,3314,1,1
1615,30,69,10,7,4184,0,0
1616,30,70,3,10,2379,0,1
1617,30,71,3,1,5206,0,0
1618,30,72,1,6,3846,0,1
1619,30,73,2,0,4757,1,1
1620,30,74,5,8,3224,0,1
1621,30,75,4,0,2449,1,1
1622,30,76,7,7,3748,1,0
1623,30,77,10,7,3411,1,1
1624,30,78,1,0,6302,1,1
1625,30,79,3,0,3048,1,1
1626,30,80,6,10,3507,0,1
1627,30,81,8,6,4950,1,1
1628,30,82,9,6,3206,1,1
1629,30,83,8,7,4870,0,0
1630,30,84,0,2,1635,1,0
1631,30,85,2,0,3105,0,0
1632,30,86,8,7,6832,0,0
1633,30,87,10,7,1989,0,0
1634,30,88,7,0,2227,1,1
1635,30,89,0,7,4415,0,1
1636,30,90,7,1,1971,1,1
1637,30,91,7,6,1893,1,1
1638,30,92,2,7,2037,0,1
1639,30,93,0,6,1820,0,1
1640,30,94,7,3,2019,1,1
1641,30,95,7,3,1909,1,1
1642,30,96,9,10,1894,1,0
1643,30,97,9,7,2185,1,1
1644,30,98,0,3,1546,0,1
1645,30,99,1,2,2008,1,0
1646,30,100,7,10,2337,0,1
1647,31,1,3,5,3597,0,1
1648,31,2,2,3,3592,0,1
1649,31,3,1,2,1583,0,1
1650,31,4,2,1,2096,1,1
1651,31,5,4,1,2461,1,1
1652,31,6,4,0,1256,1,1
1653,31,7,6,3,1378,1,1
1654,31,8,1,4,1419,0,1
1655,31,9,1,5,1731,0,1
1656,31,10,2,1,12704,1,1
1657,31,11,1,2,1970,0,1
1658,31,12,0,0,3700,0,0
1659,31,13,5,2,1993,1,1
1660,31,14,1,2,1396,0,1
1661,31,15,5,1,3099,1,1
1662,31,16,0,2,3948,0,1
1663,31,17,1,2,5702,1,0
1664,31,18,4,5,3322,1,0
1665,31,19,3,1,1264,1,1
1666,31,20,5,0,1188,1,1
1667,31,21,1,6,1215,0,1
1668,31,22,0,5,1096,0,1
1669,31,23,5,1,1918,1,1
1670,31,24,3,3,6085,0,0
1671,31,25,2,3,2126,0,1
1672,31,26,0,4,3109,0,1
1673,31,27,0,3,2069,0,1
1674,31,28,1,2,3280,1,0
1675,31,29,6,2,1174,1,1
1676,31,30,4,6,1103,0,1
1677,31,31,2,3,6980,0,1
1678,31,32,2,2,14806,1,0
1679,31,33,3,4,1545,1,0
1680,31,34,4,2,1167,1,1
1681,31,35,2,4,1193,0,1
1682,31,36,1,1,7380,1,0
1683,31,37,6,2,1332,1,1
1684,31,38,2,2,3576,0,0
1685,31,39,4,1,1765,1,1
1686,31,40,4,6,1559,0,1
1687,31,41,4,7,1975,0,1
1688,31,42,6,2,1177,1,1
1689,31,43,2,0,3097,1,1
1690,31,44,5,2,2808,0,0
1691,31,45,2,2,2247,0,0
1692,31,46,3,4,1702,0,1
1693,31,47,0,4,2428,0,1
1694,31,48,1,1,3841,0,0
1695,31,49,2,2,2922,0,0
1696,31,50,2,5,1444,0,1
1697,31,51,4,1,2155,1,1
1698,31,52,4,3,2741,1,1
1699,31,53,1,4,2024,0,1
1700,31,54,4,1,1173,1,1
1701,31,55,3,6,952,0,1
1702,31,56,8,4,1872,1,1
1703,31,57,2,4,4919,1,0
1704,31,58,0,1,2650,0,1
1705,31,59,5,0,1488,1,1
1706,31,60,2,0,3423,1,1
1707,31,61,2,1,1351,1,1
1708,31,62,2,1,4483,1,1
1709,31,63,6,3,804,1,1
1710,31,64,3,6,7838,1,0
1711,31,65,5,1,1128,1,1
1712,31,66,4,2,1352,1,1
1713,31,67,1,0,4726,1,1
1714,31,68,1,5,1228,0,1
1715,31,69,0,4,1348,0,1
1716,31,70,2,0,2833,1,1
1717,31,71,1,3,2570,0,1
1718,31,72,6,2,1575,1,1
1719,31,73,2,3,3127,0,1
1720,31,74,5,4,6901,1,1
1721,31,75,3,0,1085,1,1
1722,31,76,2,1,1745,0,0
1723,31,77,0,1,1925,0,1
1724,31,78,0,4,1931,0,1
1725,31,79,1,0,15450,1,1
1726,31,80,3,0,1555,1,1
1727,31,81,6,3,875,1,1
1728,31,82,1,5,1090,0,1
1729,31,84,7,8,23572,0,1
1730,31,85,2,2,1356,1,0
1731,31,86,4,1,1028,1,1
1732,31,87,1,5,5092,0,1
1733,31,88,5,5,8349,0,0
1734,31,89,5,4,3599,1,1
1735,31,90,2,6,1260,0,1
1736,31,91,0,5,1461,0,1
1737,31,92,1,0,7257,0,0
1738,31,93,4,2,3980,0,0
1739,31,94,6,2,1437,1,1
1740,31,95,1,3,1584,0,1
1741,31,96,2,3,1668,0,1
1742,31,97,6,3,10078,0,0
1743,31,98,2,2,7323,0,0
1744,31,99,0,5,936,0,1
1745,31,100,1,0,4381,0,0
1746,32,2,0,0,1737,0,0
1747,32,3,2,0,10804,1,1
1748,32,4,6,2,3780,1,1
1749,32,5,3,3,5953,1,0
1750,32,6,0,6,1959,0,1
1751,32,7,6,2,2216,1,1
1752,32,8,9,2,1519,1,1
1753,32,9,0,6,1994,0,1
1754,32,10,0,0,3030,0,0
1755,32,11,0,7,2365,0,1
1756,32,12,3,0,3179,1,1
1757,32,13,4,9,1866,0,1
1758,32,14,6,7,2862,1,0
1759,32,15,2,9,1669,0,1
1760,32,16,6,1,1910,1,1
1761,32,17,4,6,3030,1,0
1762,32,18,2,4,3677,1,0
1763,32,19,0,1,2348,0,1
1764,32,20,0,0,2269,1,0
1765,32,21,2,8,874,0,1
1766,32,22,9,2,1473,1,1
1767,32,23,2,9,1013,0,1
1768,32,24,2,4,2239,0,1
1769,32,25,6,0,2911,1,1
1770,32,26,0,3,2097,0,1
1771,32,27,0,6,4138,0,1
1772,32,28,0,0,4084,1,0
1773,32,29,6,2,2691,1,1
1774,32,30,8,7,2664,1,1
1775,32,31,0,3,2714,0,1
1776,32,32,4,6,2882,0,1
1777,32,33,1,7,1334,0,1
1778,32,34,4,2,2149,0,0
1779,32,35,6,7,1298,0,1
1780,32,36,7,4,1606,1,1
1781,32,37,3,8,1177,0,1
1782,32,38,3,3,3926,1,0
1783,32,39,8,7,2738,1,1
1784,32,40,1,6,1750,0,1
1785,32,41,0,4,2332,0,1
1786,32,42,3,0,2481,1,1
1787,32,43,0,0,3121,0,0
1788,32,44,0,0,3131,1,0
1789,32,45,2,4,1618,0,1
1790,32,46,8,8,1995,0,0
1791,32,47,9,8,1745,0,0
1792,32,48,0,2,3102,1,0
1793,32,49,4,8,1941,0,1
1794,32,50,3,0,3167,1,1
1795,32,51,2,2,2793,0,0
1796,32,52,0,1,1757,0,1
1797,32,53,7,2,3201,1,1
1798,32,54,0,7,1473,0,1
1799,32,55,6,1,2875,1,1
1800,32,56,3,3,5094,0,0
1801,32,57,8,8,1034,1,0
1802,32,58,1,0,2149,1,1
1803,32,59,6,3,2825,1,1
1804,32,60,6,1,2022,1,1
1805,32,61,0,3,2694,0,1
1806,32,62,6,1,7328,0,0
1807,32,63,2,2,1470,1,0
1808,32,64,2,0,3190,1,1
1809,32,65,4,9,1100,0,1
1810,32,66,0,2,2250,0,1
1811,32,67,2,3,3816,0,1
1812,32,68,2,2,4280,0,0
1813,32,69,0,0,3996,1,0
1814,32,70,9,7,2486,1,1
1815,32,71,9,2,1569,1,1
1816,32,72,6,1,2138,1,1
1817,32,73,2,6,1312,0,1
1818,32,74,4,2,2878,1,1
1819,32,75,0,1,4526,1,0
1820,32,76,1,0,2775,1,1
1821,32,77,7,0,1632,1,1
1822,32,78,0,6,2651,0,1
1823,32,79,0,4,1271,0,1
1824,32,80,0,6,5631,1,0
1825,32,81,1,0,1394,1,1
1826,32,82,3,1,2669,1,1
1827,32,83,0,7,1569,0,1
1828,32,84,2,9,1010,0,1
1829,32,85,6,0,2339,1,1
1830,32,86,0,2,2024,0,1
1831,32,87,0,2,3139,1,0
1832,32,88,8,8,1226,1,0
1833,32,89,2,1,4873,0,0
1834,32,90,6,9,3471,0,1
1835,32,91,7,0,1486,1,1
1836,32,92,3,2,2440,0,0
1837,32,93,2,2,896,0,0
1838,32,94,8,6,3876,0,0
1839,32,95,0,1,1165,0,1
1840,32,96,3,2,2022,0,0
1841,32,97,0,4,1460,0,1
1842,32,98,3,8,1138,0,1
1843,32,99,0,7,1995,0,1
1844,32,100,0,1,1510,0,1
1845,33,34,7,9,784,0,1
1846,33,42,3,9,1442,0,1
1847,33,54,8,3,3733,1,1
1848,33,55,10,3,795,1,1
1849,33,56,10,4,2013,1,1
1850,33,57,4,8,1192,0,1
1851,33,58,10,5,930,1,1
1852,33,59,7,1,1297,1,1
1853,33,60,0,5,2182,0,1
1854,33,61,5,8,6454,0,1
1855,33,62,6,8,1391,1,0
1856,33,63,6,10,969,0,1
1857,33,64,10,7,2376,1,1
1858,33,65,7,6,1282,1,1
1859,33,66,3,7,1078,0,1
1860,33,67,6,9,1794,0,1
1861,33,68,5,7,869,1,0
1862,33,69,0,0,3620,0,0
1863,33,70,7,10,897,0,1
1864,33,71,7,8,1323,1,0
1865,33,72,5,3,950,1,1
1866,33,73,10,9,1529,1,1
1867,33,74,2,3,2562,0,1
1868,33,75,3,1,1272,1,1
1869,33,76,10,7,679,1,1
1870,33,77,7,5,1101,1,1
1871,33,78,6,8,1150,1,0
1872,33,79,9,4,743,1,1
1873,33,80,7,2,1025,1,1
1874,33,81,3,5,756,1,0
1875,33,82,7,7,1528,1,0
1876,33,83,9,7,2687,0,0
1877,33,84,6,10,889,0,1
1878,33,85,1,2,1051,0,1
1879,33,86,7,9,1291,1,0
1880,33,87,0,4,916,0,1
1881,33,88,9,10,1220,0,1
1882,33,89,10,10,1485,0,0
1883,33,90,10,8,902,1,1
1884,33,91,5,5,1800,1,0
1885,33,92,3,7,1701,1,0
1886,33,93,10,6,2177,1,1
1887,33,94,0,5,1680,0,1
1888,33,95,10,3,883,1,1
1889,33,96,8,6,1077,0,0
1890,33,97,6,9,1080,0,1
1891,33,98,5,4,1233,1,1
1892,33,99,10,8,1142,0,0
1893,33,100,5,10,870,0,1
1894,34,1,4,5,2259,0,1
1895,34,2,5,0,1409,1,1
1896,34,3,7,9,1350,0,1
1897,34,4,7,2,3345,1,1
1898,34,5,5,3,4012,1,1
1899,34,6,9,5,2001,1,1
1900,34,7,5,2,2088,1,1
1901,34,8,3,6,2625,0,1
1902,34,9,8,5,1679,1,1
1903,34,10,9,6,2647,1,1
1904,34,11,5,2,3164,1,1
1905,34,12,2,3,2341,0,1
1906,34,13,3,7,1787,0,1
1907,34,14,3,8,1557,0,1
1908,34,15,9,8,3319,1,1
1909,34,16,8,7,3006,1,1
1910,34,17,9,10,1928,0,1
1911,34,18,7,9,1701,0,1
1912,34,19,8,6,2940,1,1
1913,34,20,8,5,1512,1,1
1914,34,21,10,5,1480,1,1
1915,34,22,0,5,1808,0,1
1916,34,23,7,10,1419,0,1
1917,34,24,9,8,2024,1,1
1918,34,25,7,2,1742,1,1
1919,34,26,3,5,2731,0,1
1920,34,27,6,3,2203,1,1
1921,34,28,7,4,3033,1,1
1922,34,29,7,6,5760,1,1
1923,34,30,5,8,1963,0,1
1924,34,31,9,7,1580,1,1
1925,34,32,9,4,1550,1,1
1926,34,33,6,2,1839,1,1
1927,34,34,5,3,2103,1,1
1928,34,35,8,7,1622,1,1
1929,34,36,7,5,2680,1,1
1930,34,37,3,0,1872,1,1
1931,34,38,7,5,1548,1,1
1932,34,39,3,8,2995,0,1
1933,34,40,7,2,2138,1,1
1934,34,41,10,8,2087,1,1
1935,34,42,1,5,1708,0,1
1936,34,43,0,2,3188,0,1
1937,34,44,5,9,2583,0,1
1938,34,45,6,7,1605,0,1
1939,34,46,8,6,2726,1,1
1940,34,47,7,9,2450,0,1
1941,34,48,8,6,2400,1,1
1942,34,49,6,3,1734,1,1
1943,34,50,10,7,1561,1,1
1944,34,51,3,0,2159,1,1
1945,34,52,4,8,1971,0,1
1946,34,53,6,6,2129,1,0
1947,34,54,3,2,2003,1,1
1948,34,55,2,2,2072,1,0
1949,34,56,6,9,1622,0,1
1950,34,57,3,7,1607,0,1
1951,34,58,8,8,3950,1,0
1952,34,59,2,5,2804,0,1
1953,34,60,9,8,2177,1,1
1954,34,61,9,9,3187,1,0
1955,34,62,5,7,2784,1,0
1956,34,63,6,4,3052,1,1
1957,34,64,7,9,1496,0,1
1958,34,65,8,6,1917,1,1
1959,34,66,3,7,2072,0,1
1960,34,67,2,2,1803,0,0
1961,34,68,8,7,4599,1,1
1962,34,69,4,1,1829,1,1
1963,34,70,5,6,1518,0,1
1964,34,71,0,2,1220,0,1
1965,34,72,3,2,3847,1,1
1966,34,73,8,7,3313,0,0
1967,34,74,8,3,1714,1,1
1968,34,75,6,8,2102,0,1
1969,34,76,4,8,1416,0,1
1970,34,77,9,4,1345,1,1
1971,34,78,0,5,1159,0,1
1972,34,79,8,9,2861,0,1
1973,34,80,5,9,1938,0,1
1974,34,81,6,8,2880,1,0
1975,34,82,3,2,3336,1,1
1976,34,83,8,3,1799,0,0
1977,34,84,0,3,2264,0,1
1978,34,85,7,4,1966,1,1
1979,34,86,3,6,2011,0,1
1980,34,87,6,8,2121,0,1
1981,34,88,9,8,3458,0,0
1982,34,89,6,3,2136,1,1
1983,34,90,3,2,2833,1,1
1984,34,91,4,1,2472,0,0
1985,34,92,8,7,4312,0,0
1986,34,93,7,6,5059,1,1
1987,34,94,8,6,1762,1,1
1988,34,95,3,2,4666,1,1
1989,34,96,2,6,1892,0,1
1990,34,97,8,9,1899,0,1
1991,34,98,7,9,3668,1,0
1992,34,99,2,7,2283,0,1
1993,34,100,6,5,2560,0,0
1994,35,1,0,0,4642,1,0
1995,35,2,1,0,2722,0,0
1996,35,3,1,0,1763,1,1
1997,35,4,4,0,995,1,1
1998,35,5,0,4,1272,0,1
1999,35,6,2,3,1439,1,0
2000,35,7,0,1,1738,0,1
2001,35,8,0,5,1279,1,0
2002,35,9,10,10,1106,1,0
2003,35,10,1,0,1708,1,1
2004,35,11,0,0,1196,0,0
2005,35,12,1,0,1194,1,1
2006,35,13,0,3,2326,0,1
2007,35,14,7,2,1052,1,1
2008,35,15,0,0,1374,0,0
2009,35,16,0,0,2700,0,0
2010,35,17,1,3,1491,0,1
2011,35,18,1,3,1686,1,0
2012,35,19,0,0,3905,1,0
2013,35,20,7,5,2458,1,1
2014,35,21,7,10,1503,0,1
2015,35,22,1,6,1418,0,1
2016,35,23,0,5,1423,0,1
2017,35,24,2,0,1196,1,1
2018,35,25,4,0,1610,1,1
2019,35,26,0,2,1370,0,1
2020,35,27,0,1,1226,0,1
2021,35,28,5,2,1374,0,0
2022,35,29,0,0,1171,1,0
2023,35,30,7,3,991,1,1
2024,35,31,0,0,2495,0,0
2025,35,32,5,8,984,0,1
2026,35,33,4,4,1142,0,0
2027,35,34,0,5,1258,0,1
2028,35,35,5,0,1640,1,1
2029,35,36,5,3,960,1,1
2030,35,37,0,0,1402,1,0
2031,35,38,0,0,2272,1,0
2032,35,39,0,2,1245,0,1
2033,35,40,0,1,2404,0,1
2034,35,41,4,5,1173,1,0
2035,35,42,5,3,1040,1,1
2036,35,43,1,5,1512,1,0
2037,35,44,0,4,1169,0,1
2038,35,45,3,3,1272,1,0
2039,35,46,1,1,1475,1,0
2040,35,47,5,0,2253,1,1
2041,35,48,3,4,1294,0,1
2042,35,49,5,0,1023,1,1
2043,35,50,2,5,1347,1,0
2044,35,51,2,1,873,1,1
2045,35,52,0,0,2098,0,0
2046,35,53,3,6,1069,0,1
2047,35,54,0,5,1515,0,1
2048,35,55,0,0,2500,0,0
2049,35,56,1,5,1173,1,0
2050,35,57,0,5,1184,0,1
2051,35,58,0,0,968,0,0
2052,35,59,1,4,976,0,1
2053,35,60,4,0,966,1,1
2054,35,61,0,0,1509,1,0
2055,35,62,5,0,1122,1,1
2056,35,63,2,3,1258,1,0
2057,35,64,4,0,1013,1,1
2058,35,65,4,3,810,1,1
2059,35,66,0,5,1300,0,1
2060,35,67,1,5,1853,0,1
2061,35,68,0,2,974,0,1
2062,35,69,1,0,1032,1,1
2063,35,70,0,4,968,0,1
2064,35,71,4,0,1131,1,1
2065,35,72,0,0,1565,0,0
2066,35,73,4,1,1028,1,1
2067,35,74,4,2,1044,1,1
2068,35,75,4,1,1156,1,1
2069,35,76,0,0,1497,1,0
2070,35,77,4,1,791,1,1
2071,35,78,2,0,2192,1,1
2072,35,79,0,4,970,0,1
2073,35,80,0,0,1487,1,0
2074,35,81,0,5,1303,0,1
2075,35,82,0,5,1162,0,1
2076,35,83,0,3,1842,0,1
2077,35,84,4,7,1317,1,0
2078,35,85,4,8,1246,0,1
2079,35,86,10,5,1020,1,1
2080,35,87,2,0,927,1,1
2081,35,88,5,0,1242,1,1
2082,35,89,0,0,1310,1,0
2083,35,90,8,7,1214,1,1
2084,35,91,3,0,1077,1,1
2085,35,92,1,5,1247,0,1
2086,35,93,4,2,1297,1,1
2087,35,94,2,4,1812,1,0
2088,35,95,0,2,1120,0,1
2089,35,96,6,3,937,1,1
2090,35,97,0,5,1247,0,1
2091,35,98,10,5,1167,1,1
2092,35,99,0,4,948,0,1
2093,35,100,10,5,1115,1,1
2094,38,1,3,7,1117,0,1
2095,38,2,7,3,1315,1,1
2096,38,3,4,7,825,0,1
2097,38,4,1,2,1276,0,1
2098,38,5,4,3,1501,1,1
2099,38,6,7,7,779,0,0
2100,38,7,5,1,1033,1,1
2101,38,8,3,6,913,0,1
2102,38,9,2,3,1332,0,1
2103,38,10,1,6,1171,0,1
2104,38,11,0,1,1257,0,1
2105,38,12,2,7,824,0,1
2106,38,13,2,3,1175,0,1
2107,38,14,0,2,1746,0,1
2108,38,15,5,1,1193,1,1
2109,38,16,2,1,1498,0,0
2110,38,17,3,2,2055,0,0
2111,38,18,2,3,1437,0,1
2112,38,19,1,0,1984,0,0
2113,38,20,0,4,1051,0,1
2114,38,21,7,2,783,1,1
2115,38,22,2,1,1505,0,0
2116,38,23,5,7,1385,0,1
2117,38,24,2,2,1310,1,0
2118,38,25,3,4,1669,0,1
2119,38,26,2,3,1765,0,1
2120,38,27,6,4,827,1,1
2121,38,28,0,2,2234,1,0
2122,38,29,3,5,1406,0,1
2123,38,30,4,3,1172,1,1
2124,38,31,2,2,963,1,0
2125,38,32,5,7,738,0,1
2126,38,33,0,1,1130,1,0
2127,38,34,2,3,1413,1,0
2128,38,35,3,3,1367,1,0
2129,38,36,2,7,1091,0,1
2130,38,37,5,6,1246,0,1
2131,38,38,3,0,1278,1,1
2132,38,39,7,2,745,1,1
2133,38,40,6,6,1720,0,0
2134,38,41,5,4,1227,0,0
2135,38,42,1,6,1447,0,1
2136,38,43,2,4,1283,0,1
2137,38,44,5,0,900,1,1
2138,38,45,3,0,1589,1,1
2139,38,46,0,2,1590,1,0
2140,38,47,3,7,791,0,1
2141,38,48,0,3,1328,0,1
2142,38,49,1,2,1425,1,0
2143,38,50,1,2,1479,1,0
2144,38,51,2,2,1686,1,0
2145,38,52,1,0,961,0,0
2146,38,53,2,3,1156,1,0
2147,38,54,3,7,723,0,1
2148,38,55,2,2,1061,1,0
2149,38,56,0,2,981,1,0
2150,38,57,0,3,912,0,1
2151,38,58,2,5,982,0,1
2152,38,59,5,4,1028,1,1
2153,38,60,3,1,1253,1,1
2154,38,61,1,1,922,0,0
2155,38,62,2,4,1313,0,1
2156,38,63,2,5,1394,0,1
2157,38,64,1,4,1020,0,1
2158,38,65,7,6,1398,1,1
2159,38,66,1,6,1237,0,1
2160,38,67,3,2,1153,1,1
2161,38,68,7,2,1202,1,1
2162,38,69,4,6,1319,0,1
2163,38,70,3,6,1227,0,1
2164,38,71,0,3,1248,0,1
2165,38,72,6,5,1280,1,1
2166,38,73,0,2,1298,0,1
2167,38,74,3,1,1911,1,1
2168,38,75,8,6,1099,1,1
2169,38,76,6,2,1129,1,1
2170,38,77,2,3,1028,0,1
2171,38,78,5,3,2023,1,1
2172,38,79,4,6,977,0,1
2173,38,80,2,0,1211,1,1
2174,38,81,0,0,1286,1,0
2175,38,82,3,6,1229,0,1
2176,38,83,2,4,974,0,1
2177,38,84,7,3,1104,1,1
2178,38,85,8,6,577,1,1
2179,38,86,3,0,1402,0,0
2180,38,87,2,1,1219,1,1
2181,38,88,4,1,1312,1,1
2182,38,89,3,2,1233,1,1
2183,38,90,1,3,976,0,1
2184,38,91,6,2,1457,0,0
2185,38,92,6,5,904,1,1
2186,38,93,3,2,980,1,1
2187,38,94,2,5,1012,0,1
2188,38,95,1,3,844,0,1
2189,38,96,7,2,770,1,1
2190,38,97,2,1,959,1,1
2191,38,98,2,2,968,0,0
2192,38,99,4,7,1099,0,1
2193,38,100,0,5,1012,0,1
2194,39,1,3,0,1504,1,1
2195,39,2,4,2,1669,0,0
2196,39,3,4,0,2034,1,1
2197,39,4,5,6,4151,1,0
2198,39,5,0,3,2051,1,0
2199,39,6,1,5,2244,0,1
2200,39,7,2,3,2450,0,1
2201,39,8,5,0,1684,1,1
2202,39,9,4,3,3350,0,0
2203,39,10,3,5,2187,0,1
2204,39,11,4,2,3283,0,0
2205,39,12,1,5,2762,0,1
2206,39,13,1,3,2199,0,1
2207,39,14,1,0,2616,1,1
2208,39,15,1,0,2412,1,1
2209,39,16,3,0,1975,1,1
2210,39,17,0,1,1374,1,0
2211,39,18,3,2,2574,0,0
2212,39,19,2,5,1675,0,1
2213,39,20,4,5,1536,0,1
2214,39,21,1,2,2369,1,0
2215,39,22,7,5,1326,1,1
2216,39,23,4,3,1701,0,0
2217,39,24,7,4,1683,1,1
2218,39,25,1,2,1605,0,1
2219,39,26,4,5,1379,0,1
2220,39,27,1,6,2087,0,1
2221,39,28,3,4,1676,1,0
2222,39,29,0,3,1217,0,1
2223,39,30,0,2,2036,0,1
2224,39,31,1,0,2691,1,1
2225,39,32,1,5,1636,0,1
2226,39,33,5,4,2029,1,1
2227,39,34,10,5,1368,1,1
2228,39,35,5,5,1225,1,0
2229,39,36,1,5,2021,1,0
2230,39,37,2,1,2073,0,0
2231,39,38,4,5,1470,0,1
2232,39,39,5,4,1027,1,1
2233,39,40,5,3,1373,1,1
2234,39,41,1,0,1338,1,1
2235,39,42,2,5,1250,0,1
2236,39,43,5,3,1581,1,1
2237,39,44,10,5,2422,0,0
2238,39,45,0,2,2309,0,1
2239,39,46,5,2,1694,0,0
2240,39,47,2,5,2436,0,1
2241,39,48,1,3,2104,0,1
2242,39,49,2,2,2153,0,0
2243,39,50,4,2,2671,0,0
2244,39,51,5,0,1191,1,1
2245,39,52,2,2,1775,1,0
2246,39,53,0,5,1606,0,1
2247,39,54,5,2,1793,1,1
2248,39,55,0,1,2180,0,1
2249,39,56,1,0,2840,1,1
2250,39,57,0,2,1643,0,1
2251,39,58,2,0,1658,1,1
2252,39,59,2,1,1550,1,1
2253,39,60,2,5,1551,0,1
2254,39,61,1,1,1554,0,0
2255,39,62,5,0,2999,1,1
2256,39,63,5,0,1974,1,1
2257,39,64,0,1,2414,0,1
2258,39,65,2,4,1565,0,1
2259,39,66,4,4,1476,1,0
2260,39,67,5,2,2094,1,1
2261,39,68,1,0,2018,1,1
2262,39,69,2,4,2094,0,1
2263,39,70,2,3,1474,1,0
2264,39,71,0,0,1856,0,0
2265,39,72,4,5,1670,1,0
2266,39,73,1,2,1236,0,1
2267,39,74,1,2,2131,1,0
2268,39,75,5,0,2157,1,1
2269,39,76,0,5,1326,0,1
2270,39,77,5,3,993,1,1
2271,39,78,5,2,1375,1,1
2272,39,79,3,6,2258,1,0
2273,39,80,0,2,1283,0,1
2274,39,81,4,2,2193,0,0
2275,39,82,2,4,3445,0,1
2276,39,83,0,4,2464,0,1
2277,39,84,0,4,1797,0,1
2278,39,85,5,1,1976,1,1
2279,39,86,5,1,2071,1,1
2280,39,87,5,2,1277,1,1
2281,39,88,2,3,1662,0,1
2282,39,89,3,4,1937,1,0
2283,39,90,5,5,1784,1,0
2284,39,91,1,4,1532,0,1
2285,39,92,3,4,1352,0,1
2286,39,93,1,4,2458,0,1
2287,39,94,2,3,4147,0,1
2288,39,95,2,5,2273,0,1
2289,39,96,1,1,1862,0,0
2290,39,97,1,1,1510,0,0
2291,39,98,2,7,1535,0,1
2292,39,99,2,3,2104,1,0
2293,39,100,0,2,1974,1,0
2294,40,1,0,4,1448,0,1
2295,40,2,8,5,1667,1,1
2296,40,3,4,0,1195,1,1
2297,40,4,4,6,1215,1,0
2298,40,5,0,1,1029,0,1
2299,40,6,4,6,1571,0,1
2300,40,7,1,4,2897,0,1
2301,40,8,5,4,1230,1,1
2302,40,9,2,5,1349,0,1
2303,40,10,2,0,2620,0,0
2304,40,11,3,1,1404,1,1
2305,40,12,2,5,1637,0,1
2306,40,13,2,1,1697,0,0
2307,40,14,4,1,1227,1,1
2308,40,15,2,4,2226,1,0
2309,40,16,2,0,1913,1,1
2310,40,17,7,6,1251,1,1
2311,40,18,4,0,1488,1,1
2312,40,19,6,5,1358,0,0
2313,40,20,2,1,1395,1,1
2314,40,21,6,8,1484,0,1
2315,40,22,2,0,1530,1,1
2316,40,23,1,4,2298,1,0
2317,40,24,5,0,1212,1,1
2318,40,25,1,0,1325,0,0
2319,40,26,2,1,1861,0,0
2320,40,27,0,4,1108,0,1
2321,40,28,4,2,1526,1,1
2322,40,29,4,7,1337,0,1
2323,40,30,3,2,1422,1,1
2324,40,31,4,5,3690,1,0
2325,40,32,1,3,2009,1,0
2326,40,33,2,0,1158,1,1
2327,40,34,6,6,1638,0,0
2328,40,35,2,2,2112,1,0
2329,40,36,2,7,1475,1,0
2330,40,37,5,5,1079,1,0
2331,40,38,6,1,1286,1,1
2332,40,39,2,7,1289,0,1
2333,40,40,4,2,1461,1,1
2334,40,41,6,5,2115,0,0
2335,40,42,2,5,1131,0,1
2336,40,43,6,2,1569,0,0
2337,40,44,7,2,1431,1,1
2338,40,45,4,9,1691,0,1
2339,40,46,1,2,2573,1,0
2340,40,47,7,2,1415,1,1
2341,40,48,5,0,1093,1,1
2342,40,49,0,3,974,0,1
2343,40,50,3,4,1722,0,1
2344,40,51,2,4,1060,1,0
2345,40,52,8,5,1734,1,1
2346,40,53,5,1,1198,1,1
2347,40,54,4,1,1909,1,1
2348,40,55,4,2,949,1,1
2349,40,56,0,0,3056,0,0
2350,40,57,4,1,859,1,1
2351,40,58,7,2,1143,1,1
2352,40,59,5,5,1224,0,0
2353,40,60,2,3,1863,0,1
2354,40,61,3,6,1049,0,1
2355,40,62,3,6,1232,0,1
2356,40,63,1,0,2499,1,1
2357,40,64,5,4,1347,1,1
2358,40,65,4,2,1671,1,1
2359,40,66,5,1,1384,1,1
2360,40,67,6,2,2280,1,1
2361,40,68,1,6,1255,0,1
2362,40,69,5,1,1413,1,1
2363,40,70,7,3,3184,1,1
2364,40,71,5,1,1356,1,1
2365,40,72,5,4,1868,1,1
2366,40,73,7,2,1102,1,1
2367,40,74,5,0,1384,1,1
2368,40,75,4,3,1232,0,0
2369,40,76,10,6,1221,1,1
2370,40,77,2,6,1116,0,1
2371,40,78,5,2,1406,1,1
2372,40,79,2,5,910,0,1
2373,40,80,5,8,1764,0,1
2374,40,81,5,9,1429,0,1
2375,40,82,7,2,1456,1,1
2376,40,83,1,6,1376,1,0
2377,40,84,5,7,1112,0,1
2378,40,85,6,5,1195,1,1
2379,40,86,1,4,2285,0,1
2380,40,87,1,2,1187,1,0
2381,40,88,2,6,1355,0,1
2382,40,89,1,2,2419,0,1
2383,40,90,3,0,1640,1,1
2384,40,91,3,0,1599,1,1
2385,40,92,4,2,1708,1,1
2386,40,93,5,6,1046,1,0
2387,40,94,8,8,2257,1,0
2388,40,95,1,2,1946,1,0
2389,40,96,5,2,1640,1,1
2390,40,97,2,2,1546,0,0
2391,40,98,3,6,2312,1,0
2392,40,99,4,9,1343,0,1
2393,40,100,9,6,1546,1,1
2394,41,1,2,7,1137,0,1
2395,41,2,5,2,1255,1,1
2396,41,3,4,5,2433,1,0
2397,41,4,3,2,1811,0,0
2398,41,5,9,4,948,1,1
2399,41,6,5,3,2033,1,1
2400,41,7,8,4,1385,1,1
2401,41,8,5,3,2305,1,1
2402,41,9,0,0,1797,0,0
2403,41,10,6,2,3328,1,1
2404,41,11,4,7,1221,0,1
2405,41,12,2,5,1975,0,1
2406,41,13,5,5,2659,0,0
2407,41,14,7,5,1272,1,1
2408,41,15,7,8,1579,0,1
2409,41,16,5,6,2291,1,0
2410,41,17,0,3,1449,0,1
2411,41,18,4,3,1966,1,1
2412,41,19,7,5,2258,0,0
2413,41,20,4,3,1399,1,1
2414,41,21,3,0,1122,1,1
2415,41,22,0,4,1092,0,1
2416,41,23,4,9,1405,0,1
2417,41,24,4,9,5135,0,1
2418,41,25,5,2,4038,0,0
2419,41,26,4,1,2723,1,1
2420,41,27,4,0,1979,0,0
2421,41,28,3,1,2359,1,1
2422,41,29,4,2,1587,1,1
2423,41,30,4,0,1162,1,1
2424,41,31,5,8,1495,0,1
2425,41,32,8,4,3521,1,1
2426,41,33,2,2,2920,1,0
2427,41,34,2,7,1163,0,1
2428,41,35,2,4,5016,1,0
2429,41,36,4,3,7244,1,1
2430,41,37,2,0,1275,0,0
2431,41,38,5,0,1126,1,1
2432,41,39,0,4,964,0,1
2433,41,40,0,2,1245,0,1
2434,41,41,3,0,1721,1,1
2435,41,42,2,3,7963,1,0
2436,41,43,9,7,5411,0,0
2437,41,44,7,4,4058,1,1
2438,41,45,2,0,1551,1,1
2439,41,46,8,5,4644,0,0
2440,41,47,5,4,1642,0,0
2441,41,48,0,3,1049,0,1
2442,41,49,3,5,1250,0,1
2443,41,50,8,5,2180,1,1
2444,41,51,3,0,975,1,1
2445,41,52,1,5,1402,0,1
2446,41,53,2,0,1189,1,1
2447,41,54,2,7,4863,1,0
2448,41,55,5,3,939,1,1
2449,41,56,4,4,1258,0,0
2450,41,57,9,4,1930,1,1
2451,41,58,4,5,3645,0,1
2452,41,59,4,2,3154,1,1
2453,41,60,5,1,1488,1,1
2454,41,61,2,6,2299,0,1
2455,41,62,5,1,1262,1,1
2456,41,63,5,5,1232,0,0
2457,41,64,6,3,925,1,1
2458,41,65,3,7,968,0,1
2459,41,66,5,4,6700,1,1
2460,41,67,2,7,1231,0,1
2461,41,68,3,1,1302,1,1
2462,41,69,2,5,1265,0,1
2463,41,70,3,4,839,0,1
2464,41,71,0,2,961,0,1
2465,41,72,6,5,1663,1,1
2466,41,73,5,2,1128,1,1
2467,41,74,4,4,1778,0,0
2468,41,75,6,5,2559,1,1
2469,41,76,5,9,1218,0,1
2470,41,77,5,1,3585,1,1
2471,41,78,0,5,1088,0,1
2472,41,79,3,4,1239,0,1
2473,41,80,0,0,864,0,0
2474,41,81,0,2,1195,1,0
2475,41,82,0,0,2700,0,0
2476,41,83,1,2,3104,0,1
2477,41,84,0,1,1059,1,0
2478,41,85,5,3,1367,1,1
2479,41,86,2,3,1770,1,0
2480,41,87,1,2,1094,1,0
2481,41,88,7,3,1350,1,1
2482,41,89,4,0,2283,1,1
2483,41,90,9,4,891,1,1
2484,41,91,2,0,2422,1,1
2485,41,92,3,2,1576,1,1
2486,41,93,3,2,1390,1,1
2487,41,94,2,2,836,0,0
2488,41,95,0,2,956,1,0
2489,41,96,5,4,1140,1,1
2490,41,97,2,3,2165,0,1
2491,41,98,4,4,1000,0,0
2492,41,99,3,5,4229,0,1
2493,41,100,3,5,1125,0,1
2494,42,1,1,0,943,0,0
2495,42,2,5,7,926,1,0
2496,42,3,0,0,1311,0,0
2497,42,4,4,1,2395,1,1
2498,42,5,1,1,2001,0,0
2499,42,6,4,1,1659,1,1
2500,42,7,1,1,1892,1,0
2501,42,8,3,1,1554,1,1
2502,42,9,5,4,946,1,1
2503,42,10,5,9,1228,0,1
2504,42,11,3,0,1710,0,0
2505,42,12,1,0,1634,0,0
2506,42,13,1,1,1545,1,0
2507,42,14,4,3,805,1,1
2508,42,15,4,0,887,1,1
2509,42,16,1,5,1138,0,1
2510,42,17,5,9,791,0,1
2511,42,18,4,1,987,1,1
2512,42,19,4,0,789,1,1
2513,42,20,1,2,1097,0,1
2514,42,21,3,5,842,0,1
2515,42,22,0,1,657,1,0
2516,42,23,3,0,791,1,1
2517,42,24,0,5,589,0,1
2518,42,25,1,4,690,0,1
2519,42,26,9,4,745,1,1
2520,42,27,7,4,616,1,1
2521,42,28,2,1,785,1,1
2522,42,29,3,0,697,1,1
2523,42,30,3,6,909,1,0
2524,42,31,5,3,671,1,1
2525,42,32,4,2,738,0,0
2526,42,33,1,4,1073,0,1
2527,42,34,7,8,713,1,0
2528,42,35,2,4,1104,1,0
2529,42,36,5,3,997,1,1
2530,42,37,0,0,1040,1,0
2531,42,38,4,0,794,1,1
2532,42,39,8,3,777,1,1
2533,42,40,5,6,745,1,0
2534,42,41,0,0,906,1,0
2535,42,42,0,3,1021,0,1
2536,42,43,1,5,692,0,1
2537,42,44,0,3,722,0,1
2538,42,45,0,1,965,1,0
2539,42,46,2,1,822,1,1
2540,42,47,4,7,1174,1,0
2541,42,48,0,3,1395,0,1
2542,42,49,1,0,1025,1,1
2543,42,50,6,2,648,1,1
2544,42,51,1,2,1153,1,0
2545,42,52,1,1,963,0,0
2546,42,53,1,3,623,0,1
2547,42,54,1,4,1019,0,1
2548,42,55,0,4,873,1,0
2549,42,56,7,4,620,0,0
2550,42,57,3,1,638,1,1
2551,42,58,6,10,601,1,0
2552,42,59,7,2,1019,1,1
2553,42,60,1,3,524,0,1
2554,42,61,3,4,938,0,1
2555,42,62,4,4,1162,0,0
2556,42,63,4,5,957,0,1
2557,42,64,1,3,679,0,1
2558,42,65,2,3,616,0,1
2559,42,66,4,3,1000,0,0
2560,42,67,1,3,1253,0,1
2561,42,68,9,8,667,1,1
2562,42,69,0,5,652,0,1
2563,42,70,1,1,939,1,0
2564,42,71,3,1,757,1,1
2565,42,72,0,4,993,0,1
2566,42,73,2,1,1131,0,0
2567,42,74,0,2,610,1,0
2568,42,75,1,0,1113,1,1
2569,42,76,9,7,528,1,1
2570,42,77,3,0,779,1,1
2571,42,78,1,0,892,0,0
2572,42,79,0,0,1447,1,0
2573,42,80,7,3,869,1,1
2574,42,81,3,0,1131,1,1
2575,42,82,6,1,672,1,1
2576,42,83,0,1,1180,1,0
2577,42,84,0,1,730,1,0
2578,42,85,0,3,1165,0,1
2579,42,86,3,0,845,1,1
2580,42,87,6,3,899,0,0
2581,42,88,3,0,697,1,1
2582,42,89,4,9,653,1,0
2583,42,90,5,1,707,1,1
2584,42,91,0,1,1174,1,0
2585,42,92,3,3,924,1,0
2586,42,93,5,1,699,1,1
2587,42,94,1,3,966,1,0
2588,42,95,4,1,1071,1,1
2589,42,96,3,2,1178,0,0
2590,42,97,0,0,1069,1,0
2591,42,98,5,2,1102,1,1
2592,42,99,0,5,631,0,1
2593,42,100,5,1,675,1,1
2594,44,1,4,1,2019,0,0
2595,44,2,3,5,1512,1,0
2596,44,3,2,4,2083,0,1
2597,44,4,2,5,2229,1,0
2598,44,5,2,3,1998,1,0
2599,44,6,3,2,2433,0,0
2600,44,7,6,4,2371,1,1
2601,44,8,4,3,1979,1,1
2602,44,9,5,2,2384,0,0
2603,44,10,3,5,2209,1,0
2604,44,11,5,2,1814,1,1
2605,44,12,6,1,5292,1,1
2606,44,13,2,6,2546,0,1
2607,44,14,4,3,2714,1,1
2608,44,15,4,5,3815,1,0
2609,44,16,6,3,1475,1,1
2610,44,17,4,2,4822,0,0
2611,44,18,0,2,7803,0,1
2612,44,19,4,4,3985,0,0
2613,44,20,6,2,2871,1,1
2614,44,21,2,2,3699,1,0
2615,44,22,4,3,2248,0,0
2616,44,23,4,4,3618,1,0
2617,44,24,3,3,5122,1,0
2618,44,25,3,2,2265,0,0
2619,44,26,3,6,3161,0,1
2620,44,27,3,6,1422,0,1
2621,44,28,4,2,1739,1,1
2622,44,29,3,6,2289,1,0
2623,44,30,2,5,2351,1,0
2624,44,31,4,5,1829,1,0
2625,44,32,5,4,1592,0,0
2626,44,33,3,2,2439,1,1
2627,44,34,4,5,4077,1,0
2628,44,35,5,5,1816,1,0
2629,44,36,2,4,1686,1,0
2630,44,37,5,6,2695,0,1
2631,44,38,2,1,7534,1,1
2632,44,39,2,3,5428,0,1
2633,44,40,3,4,1976,0,1
2634,44,41,2,3,1439,0,1
2635,44,42,2,5,1681,1,0
2636,44,43,2,1,4442,1,1
2637,44,44,2,2,1260,1,0
2638,44,45,3,3,1285,0,0
2639,44,46,2,0,1964,1,1
2640,44,47,3,3,1634,0,0
2641,44,48,3,3,2593,0,0
2642,44,49,5,3,1313,0,0
2643,44,50,5,3,2304,0,0
2644,44,51,5,3,1550,0,0
2645,44,52,3,5,1781,1,0
2646,44,53,4,6,1510,0,1
2647,44,54,1,4,2041,0,1
2648,44,55,4,2,1804,1,1
2649,44,56,2,6,2380,0,1
2650,44,57,3,2,1574,1,1
2651,44,58,5,2,2183,0,0
2652,44,59,0,3,1222,0,1
2653,44,60,2,3,1329,0,1
2654,44,61,2,3,4865,1,0
2655,44,62,3,0,1519,1,1
2656,44,63,3,2,1489,0,0
2657,44,64,3,3,1772,1,0
2658,44,65,5,2,1596,0,0
2659,44,66,3,1,1749,1,1
2660,44,67,5,3,1697,0,0
2661,44,68,4,3,1870,1,1
2662,44,69,0,0,1999,0,0
2663,44,70,5,2,1860,1,1
2664,44,71,3,5,2360,0,1
2665,44,72,2,3,2031,1,0
2666,44,73,1,2,1975,0,1
2667,44,74,2,2,4301,1,0
2668,44,75,3,3,5182,1,0
2669,44,76,2,3,1640,0,1
2670,44,77,1,6,1272,0,1
2671,44,78,2,4,1755,0,1
2672,44,79,2,0,1580,1,1
2673,44,80,2,3,2343,1,0
2674,44,81,1,3,2268,0,1
2675,44,82,5,0,1422,1,1
2676,44,83,2,0,1428,0,0
2677,44,84,4,2,1757,0,0
2678,44,85,3,4,1447,1,0
2679,44,86,4,5,3495,1,0
2680,44,87,3,3,1286,1,0
2681,44,88,4,2,2615,1,1
2682,44,89,3,2,3642,1,1
2683,44,90,3,2,1850,1,1
2684,44,91,0,3,2252,0,1
2685,44,92,0,5,3064,1,0
2686,44,93,5,4,2836,0,0
2687,44,94,1,3,1840,1,0
2688,44,95,5,1,1583,1,1
2689,44,96,3,4,2108,0,1
2690,44,97,3,2,1826,1,1
2691,44,98,4,5,2529,1,0
2692,44,99,3,1,2042,1,1
2693,44,100,2,5,3094,1,0
2694,45,1,4,2,3110,1,1
2695,45,2,3,2,3341,1,1
2696,45,3,3,0,2635,1,1
2697,45,4,0,3,3046,0,1
2698,45,5,4,3,2789,1,1
2699,45,6,4,2,2510,1,1
2700,45,7,4,5,5344,0,1
2701,45,8,3,5,3949,1,0
2702,45,9,3,1,2147,1,1
2703,45,10,1,2,5504,0,1
2704,45,11,0,4,1927,0,1
2705,45,12,0,4,3292,0,1
2706,45,13,4,5,1754,0,1
2707,45,14,5,5,4887,0,0
2708,45,15,4,5,14560,0,1
2709,45,16,2,5,2173,0,1
2710,45,17,0,4,2035,0,1
2711,45,18,4,8,2999,0,1
2712,45,19,5,8,4015,1,0
2713,45,20,5,5,1648,0,0
2714,45,21,2,1,6464,1,1
2715,45,22,2,1,9084,1,1
2716,45,23,5,1,2996,1,1
2717,45,24,2,7,1632,0,1
2718,45,25,3,2,1955,1,1
2719,45,26,4,5,4558,0,1
2720,45,27,1,6,1611,0,1
2721,45,28,5,3,5736,0,0
2722,45,29,3,5,6519,0,1
2723,45,30,4,4,2401,0,0
2724,45,31,2,4,3885,1,0
2725,45,32,8,6,2235,0,0
2726,45,33,3,0,2490,1,1
2727,45,34,3,3,1115,0,0
2728,45,35,5,3,8047,0,0
2729,45,36,2,3,3146,0,1
2730,45,37,2,4,1865,0,1
2731,45,38,3,2,3104,0,0
2732,45,39,7,4,1654,1,1
2733,45,40,1,3,3791,0,1
2734,45,41,2,3,5087,0,1
2735,45,42,5,1,1519,1,1
2736,45,43,3,5,9241,0,1
2737,45,44,2,4,1442,0,1
2738,45,45,1,4,2555,0,1
2739,45,46,6,5,1769,1,1
2740,45,47,2,4,1587,0,1
2741,45,48,2,4,2506,0,1
2742,45,49,2,0,3829,1,1
2743,45,50,3,4,1537,0,1
2744,45,51,4,4,11341,1,0
2745,45,52,1,4,4032,1,0
2746,45,53,1,2,14302,1,0
2747,45,54,2,4,4013,0,1
2748,45,55,1,4,5245,1,0
2749,45,56,2,4,4267,1,0
2750,45,57,3,3,2655,0,0
2751,45,58,4,7,1034,0,1
2752,45,59,3,1,1435,0,0
2753,45,60,2,4,942,0,1
2754,45,61,4,1,1689,1,1
2755,45,62,4,1,1879,1,1
2756,45,63,5,6,1504,0,1
2757,45,64,0,2,2253,0,1
2758,45,65,3,1,1790,1,1
2759,45,66,4,5,1412,1,0
2760,45,67,4,3,1749,1,1
2761,45,68,4,7,1228,0,1
2762,45,69,1,5,1098,0,1
2763,45,70,3,3,2802,1,0
2764,45,71,4,2,3290,1,1
2765,45,72,2,2,2136,0,0
2766,45,73,0,5,1085,0,1
2767,45,74,1,0,1984,1,1
2768,45,75,8,3,1944,1,1
2769,45,76,0,2,3283,0,1
2770,45,77,5,10,2681,0,1
2771,45,78,1,0,1468,1,1
2772,45,79,3,5,5260,0,1
2773,45,80,3,4,5072,1,0
2774,45,81,2,7,1422,0,1
2775,45,82,6,2,1941,1,1
2776,45,83,10,5,2054,1,1
2777,45,84,3,4,2556,0,1
2778,45,85,2,2,2763,1,0
2779,45,86,1,5,1344,0,1
2780,45,87,7,3,1396,1,1
2781,45,88,4,3,1042,0,0
2782,45,89,0,1,5165,0,1
2783,45,90,2,3,1882,0,1
2784,45,91,5,2,3847,1,1
2785,45,92,3,4,9420,1,0
2786,45,93,4,6,1451,0,1
2787,45,94,5,0,1229,1,1
2788,45,95,2,2,2214,0,0
2789,45,96,4,0,1282,1,1
2790,45,97,0,2,3882,1,0
2791,45,98,5,8,2032,0,1
2792,45,99,8,5,2306,0,0
2793,45,100,0,2,1312,0,1
2794,46,1,7,5,1528,1,1
2795,46,2,2,7,1472,0,1
2796,46,3,2,0,2757,0,0
2797,46,4,7,5,1285,1,1
2798,46,5,0,3,1564,0,1
2799,46,6,5,5,1939,1,0
2800,46,7,0,1,2765,0,1
2801,46,8,0,1,4049,0,1
2802,46,9,3,7,2766,0,1
2803,46,10,0,0,2325,1,0
2804,46,11,7,7,4424,1,0
2805,46,12,7,2,1290,1,1
2806,46,13,3,2,4458,1,1
2807,46,14,1,3,1700,0,1
2808,46,15,3,0,1410,1,1
2809,46,16,1,1,2772,1,0
2810,46,17,5,0,2210,1,1
2811,46,18,5,0,3158,1,1
2812,46,19,2,3,2445,0,1
2813,46,20,1,1,2247,1,0
2814,46,21,3,5,1299,0,1
2815,46,22,5,7,2758,0,1
2816,46,23,0,5,2171,0,1
2817,46,24,3,5,2657,0,1
2818,46,25,3,2,4393,1,1
2819,46,26,5,5,3967,1,0
2820,46,27,1,5,1242,0,1
2821,46,28,5,5,2647,0,0
2822,46,29,3,5,5483,0,1
2823,46,30,5,3,4066,1,1
2824,46,31,5,0,4126,1,1
2825,46,32,3,1,4514,1,1
2826,46,33,5,5,5258,1,0
2827,46,34,0,0,2401,1,0
2828,46,35,1,0,2382,1,1
2829,46,36,7,5,2080,1,1
2830,46,37,3,1,6385,1,1
2831,46,38,5,1,1487,1,1
2832,46,39,2,2,3602,0,0
2833,46,40,5,7,1255,0,1
2834,46,41,5,2,1345,1,1
2835,46,42,1,5,1452,0,1
2836,46,43,5,5,2369,0,0
2837,46,44,5,5,2109,0,0
2838,46,45,0,0,4398,0,0
2839,46,46,1,2,3317,1,0
2840,46,47,7,5,1841,1,1
2841,46,48,7,2,1132,1,1
2842,46,49,0,2,2490,1,0
2843,46,50,1,0,2048,1,1
2844,46,51,0,0,4556,0,0
2845,46,52,0,0,1405,1,0
2846,46,53,5,1,952,1,1
2847,46,55,7,5,1705,1,1
2848,46,56,5,7,1065,1,0
2849,46,57,2,5,883,0,1
2850,46,58,3,0,3309,1,1
2851,46,59,5,5,1572,0,0
2852,46,60,1,3,1901,1,0
2853,46,61,7,5,1403,1,1
2854,46,62,5,5,1971,0,0
2855,46,63,2,1,3467,1,1
2856,46,64,5,7,1977,0,1
2857,46,65,5,2,1667,1,1
2858,46,66,5,5,6363,1,0
2859,46,67,2,1,1722,0,0
2860,46,68,5,2,1716,1,1
2861,46,69,5,3,4088,1,1
2862,46,70,5,3,2093,1,1
2863,46,71,5,7,2195,0,1
2864,46,72,0,0,1331,1,0
2865,46,73,7,3,1057,1,1
2866,46,74,2,1,1527,0,0
2867,46,75,0,3,1434,0,1
2868,46,76,5,3,7391,0,0
2869,46,77,2,7,2281,0,1
2870,46,78,7,3,1408,1,1
2871,46,79,5,2,584,1,1
2872,46,80,7,5,1079,1,1
2873,46,81,2,0,1214,1,1
2874,46,82,7,5,2461,1,1
2875,46,83,3,7,2392,0,1
2876,46,84,3,7,1759,0,1
2877,46,85,5,3,4287,0,0
2878,46,87,5,2,1649,1,1
2879,46,88,0,5,1197,0,1
2880,46,89,7,7,2627,0,0
2881,46,90,1,0,1983,1,1
2882,46,91,3,0,1014,1,1
2883,46,92,0,2,1103,1,0
2884,46,93,7,5,1445,1,1
2885,46,94,1,3,1170,1,0
2886,46,95,7,5,900,1,1
2887,46,96,5,0,1288,1,1
2888,46,97,2,1,1125,0,0
2889,46,98,3,1,1413,1,1
2890,46,99,5,3,1986,1,1
2891,46,100,3,5,2132,0,1
2892,47,1,0,0,5035,1,0
2893,47,2,0,3,2380,0,1
2894,47,3,0,1,2244,0,1
2895,47,4,6,1,1869,1,1
2896,47,5,0,3,3020,0,1
2897,47,6,1,1,2658,1,0
2898,47,7,4,1,1232,1,1
2899,47,8,0,4,1062,0,1
2900,47,9,4,0,2365,1,1
2901,47,10,3,0,2522,1,1
2902,47,11,3,3,1754,0,0
2903,47,12,1,2,2006,1,0
2904,47,13,1,1,1478,1,0
2905,47,14,0,0,1311,0,0
2906,47,15,0,3,1515,0,1
2907,47,16,0,1,1891,1,0
2908,47,17,1,1,2684,1,0
2909,47,18,4,1,943,1,1
2910,47,19,1,1,1685,0,0
2911,47,20,3,3,1308,0,0
2912,47,21,0,4,1033,0,1
2913,47,22,6,4,1019,0,0
2914,47,23,1,0,1638,0,0
2915,47,24,3,0,1344,0,0
2916,47,25,1,0,1664,0,0
2917,47,26,6,1,1009,1,1
2918,47,27,3,4,825,0,1
2919,47,28,5,2,856,1,1
2920,47,29,1,1,1236,1,0
2921,47,30,3,0,949,0,0
2922,47,31,1,1,2416,0,0
2923,47,32,2,3,2903,0,1
2924,47,33,1,2,1530,0,1
2925,47,34,3,1,3907,0,0
2926,47,35,1,4,2992,0,1
2927,47,36,1,1,2965,1,0
2928,47,37,0,1,2780,1,0
2929,47,38,1,0,3375,0,0
2930,47,39,1,1,1244,0,0
2931,47,40,0,0,3645,0,0
2932,47,41,0,3,1093,0,1
2933,47,42,2,1,1272,1,1
2934,47,43,1,3,1688,0,1
2935,47,44,1,0,1283,0,0
2936,47,45,8,3,1206,1,1
2937,47,46,3,1,982,1,1
2938,47,47,1,0,1553,1,1
2939,47,48,3,1,1400,1,1
2940,47,49,1,6,850,0,1
2941,47,50,0,5,754,0,1
2942,47,51,1,0,1153,0,0
2943,47,52,1,0,2049,0,0
2944,47,53,6,1,935,1,1
2945,47,54,3,3,1876,1,0
2946,47,55,2,2,1085,1,0
2947,47,56,2,0,2239,0,0
2948,47,57,1,0,2613,1,1
2949,47,58,2,1,757,1,1
2950,47,59,0,2,860,0,1
2951,47,60,0,0,3492,1,0
2952,47,61,4,1,1199,1,1
2953,47,62,4,0,977,1,1
2954,47,63,5,4,1139,1,1
2955,47,64,1,4,702,0,1
2956,47,65,0,1,2115,0,1
2957,47,66,5,8,901,1,0
2958,47,67,1,3,2107,0,1
2959,47,68,7,3,948,1,1
2960,47,69,1,1,1907,1,0
2961,47,70,3,0,2172,1,1
2962,47,71,2,1,3208,0,0
2963,47,72,2,1,2069,0,0
2964,47,73,1,0,4025,1,1
2965,47,74,0,2,1623,0,1
2966,47,75,0,4,1095,0,1
2967,47,76,1,1,2806,0,0
2968,47,77,2,1,1177,0,0
2969,47,78,1,4,1125,0,1
2970,47,79,1,1,2714,0,0
2971,47,80,5,9,4360,1,0
2972,47,81,0,1,1363,1,0
2973,47,82,2,1,908,1,1
2974,47,83,4,0,1222,1,1
2975,47,84,1,4,753,0,1
2976,47,85,5,0,932,1,1
2977,47,86,6,3,1731,1,1
2978,47,87,1,5,800,0,1
2979,47,88,0,1,2197,0,1
2980,47,89,0,1,2376,1,0
2981,47,90,0,1,2527,1,0
2982,47,91,0,4,819,0,1
2983,47,92,5,3,771,1,1
2984,47,93,5,1,859,1,1
2985,47,94,1,1,2703,0,0
2986,47,95,3,7,750,0,1
2987,47,96,5,0,692,1,1
2988,47,97,5,1,646,1,1
2989,47,98,3,5,892,0,1
2990,47,99,4,1,993,1,1
2991,47,100,0,1,2689,0,1
2992,48,1,1,0,2130,1,1
2993,48,2,1,1,2994,0,0
2994,48,3,1,0,2619,1,1
2995,48,4,0,2,2654,0,1
2996,48,5,2,0,4643,1,1
2997,48,6,0,1,3608,0,1
2998,48,7,3,4,2455,0,1
2999,48,8,0,0,8358,1,0
3000,48,9,1,2,1553,0,1
3001,48,10,0,3,1309,0,1
3002,48,11,0,0,3101,1,0
3003,48,12,0,1,2025,1,0
3004,48,13,4,2,1258,1,1
3005,48,14,0,5,1636,0,1
3006,48,15,2,0,4563,0,0
3007,48,16,0,0,6378,0,0
3008,48,17,0,1,1374,0,1
3009,48,18,4,1,1904,1,1
3010,48,19,4,1,1451,1,1
3011,48,20,2,1,2131,1,1
3012,48,21,1,2,4557,0,1
3013,48,22,4,4,4289,0,0
3014,48,23,5,4,2229,1,1
3015,48,24,2,5,1344,0,1
3016,48,25,4,2,2106,1,1
3017,48,26,1,4,1559,0,1
3018,48,27,1,0,3698,1,1
3019,48,28,3,0,3711,1,1
3020,48,29,2,1,2102,0,0
3021,48,30,4,5,1354,0,1
3022,48,31,2,1,2745,0,0
3023,48,32,2,0,5204,0,0
3024,48,33,1,4,1870,0,1
3025,48,34,1,1,1361,0,0
3026,48,35,1,3,3226,0,1
3027,48,36,1,0,2916,1,1
3028,48,37,0,3,2005,0,1
3029,48,38,2,4,1828,0,1
3030,48,39,5,0,2366,1,1
3031,48,40,0,0,6286,0,0
3032,48,41,2,4,1284,0,1
3033,48,42,0,1,4733,0,1
3034,48,43,1,2,2814,1,0
3035,48,44,3,0,2513,0,0
3036,48,45,0,3,7196,0,1
3037,48,46,1,1,3202,0,0
3038,48,47,0,1,4278,0,1
3039,48,48,1,3,1751,0,1
3040,48,49,0,3,4374,1,0
3041,48,50,4,0,1174,1,1
3042,48,51,0,1,1797,0,1
3043,48,52,1,1,1851,0,0
3044,48,53,2,1,1219,0,0
3045,48,54,1,0,1647,1,1
3046,48,55,1,2,3494,0,1
3047,48,56,0,2,2270,0,1
3048,48,57,3,1,1298,1,1
3049,48,58,0,1,2342,0,1
3050,48,59,3,3,2601,1,0
3051,48,60,0,3,2950,0,1
3052,48,61,1,1,2726,0,0
3053,48,62,0,5,1279,0,1
3054,48,63,0,0,2563,0,0
3055,48,64,3,0,1038,1,1
3056,48,65,0,0,2922,1,0
3057,48,66,1,4,1315,0,1
3058,48,67,3,1,2563,1,1
3059,48,68,0,0,4257,1,0
3060,48,69,0,1,2949,1,0
3061,48,70,0,2,1392,0,1
3062,48,71,0,2,5442,0,1
3063,48,72,0,0,1885,0,0
3064,48,73,0,3,1131,0,1
3065,48,74,1,0,1370,1,1
3066,48,75,0,0,2756,0,0
3067,48,76,0,1,1388,0,1
3068,48,77,4,0,1412,1,1
3069,48,78,0,1,1071,0,1
3070,48,79,3,1,1291,1,1
3071,48,80,0,0,1889,1,0
3072,48,81,0,3,2784,0,1
3073,48,82,0,2,1281,0,1
3074,48,83,2,0,1208,1,1
3075,48,84,1,1,2854,0,0
3076,48,85,2,3,4103,0,1
3077,48,86,0,2,2751,0,1
3078,48,87,2,1,2495,0,0
3079,48,88,0,1,1008,0,1
3080,48,89,0,2,2801,0,1
3081,48,90,0,0,5509,1,0
3082,48,91,2,5,1166,0,1
3083,48,92,0,2,1033,0,1
3084,48,93,4,0,1175,1,1
3085,48,94,1,3,929,0,1
3086,48,95,0,0,2141,0,0
3087,48,96,2,1,1380,1,1
3088,48,97,0,0,2415,0,0
3089,48,98,0,4,2408,0,1
3090,48,99,0,4,897,0,1
3091,48,100,1,5,1407,0,1
3092,49,1,6,4,1298,1,1
3093,49,2,3,1,1097,1,1
3094,49,3,0,0,1080,0,0
3095,49,4,3,8,791,0,1
3096,49,5,0,3,1833,0,1
3097,49,6,3,5,1258,0,1
3098,49,7,5,4,1134,1,1
3099,49,8,0,5,993,0,1
3100,49,9,4,0,1188,0,0
3101,49,10,4,0,1162,1,1
3102,49,11,5,8,1349,0,1
3103,49,12,0,1,986,0,1
3104,49,13,3,1,1038,0,0
3105,49,14,5,7,1439,0,1
3106,49,15,2,0,1731,1,1
3107,49,16,5,5,1600,1,0
3108,49,17,0,5,1500,0,1
3109,49,18,3,2,1600,1,1
3110,49,19,4,3,1438,1,1
3111,49,20,5,0,1026,1,1
3112,49,21,0,4,1264,0,1
3113,49,22,5,5,1289,0,0
3114,49,23,1,2,1935,1,0
3115,49,24,1,5,1596,0,1
3116,49,25,0,4,2883,0,1
3117,49,26,7,4,812,1,1
3118,49,27,6,5,1379,0,0
3119,49,28,7,4,965,1,1
3120,49,29,3,0,1088,1,1
3121,49,30,0,3,1129,0,1
3122,49,31,4,4,1505,0,0
3123,49,32,5,3,1085,1,1
3124,49,33,7,8,815,0,1
3125,49,34,0,1,1095,0,1
3126,49,35,0,0,1252,0,0
3127,49,36,7,7,1835,1,0
3128,49,37,0,5,891,0,1
3129,49,38,7,6,1299,0,0
3130,49,39,6,6,1870,1,0
3131,49,40,3,3,1370,0,0
3132,49,41,0,4,1389,0,1
3133,49,42,2,4,2078,1,0
3134,49,43,5,0,1202,1,1
3135,49,44,1,0,1402,1,1
3136,49,45,5,6,956,0,1
3137,49,46,3,5,979,0,1
3138,49,47,3,0,1204,1,1
3139,49,48,4,3,1180,1,1
3140,49,49,5,5,1726,0,0
3141,49,50,6,10,1161,0,1
3142,49,51,0,3,1437,0,1
3143,49,52,10,6,690,1,1
3144,49,53,8,5,944,1,1
3145,49,54,4,0,1083,1,1
3146,49,55,2,2,2101,0,0
3147,49,56,3,3,1150,0,0
3148,49,57,3,3,1457,1,0
3149,49,58,4,1,873,1,1
3150,49,59,7,4,1396,1,1
3151,49,60,1,3,1281,0,1
3152,49,61,6,5,1613,0,0
3153,49,62,0,2,1370,1,0
3154,49,63,7,5,2082,1,1
3155,49,64,0,2,1350,0,1
3156,49,65,6,5,1243,1,1
3157,49,66,0,0,1214,0,0
3158,49,67,0,4,1396,0,1
3159,49,68,0,3,1581,0,1
3160,49,69,6,5,2778,0,0
3161,49,70,3,4,1495,0,1
3162,49,71,4,5,1188,0,1
3163,49,72,1,4,1258,0,1
3164,49,73,0,3,1470,0,1
3165,49,74,5,7,1163,0,1
3166,49,75,1,2,1009,1,0
3167,49,76,5,4,1945,1,1
3168,49,77,7,8,944,1,0
3169,49,78,8,5,1107,1,1
3170,49,79,8,5,1277,0,0
3171,49,80,8,4,785,1,1
3172,49,81,5,0,1653,1,1
3173,49,82,5,2,1517,1,1
3174,49,83,5,2,1311,1,1
3175,49,84,7,5,1092,1,1
3176,49,85,6,3,1141,1,1
3177,49,86,1,3,1557,1,0
3178,49,87,4,5,1482,1,0
3179,49,88,0,5,1170,0,1
3180,49,89,0,1,1350,1,0
3181,49,90,2,4,934,0,1
3182,49,91,4,0,838,1,1
3183,49,92,0,3,1342,1,0
3184,49,93,3,5,1770,0,1
3185,49,94,1,3,982,0,1
3186,49,95,3,6,910,0,1
3187,49,96,0,5,1310,0,1
3188,49,97,0,2,806,0,1
3189,49,98,5,5,972,0,0
3190,49,99,4,3,1035,0,0
3191,49,100,7,4,978,1,1
3192,51,1,3,1,3763,1,1
3193,51,2,0,1,3304,1,0
3194,51,3,1,3,3963,0,1
3195,51,4,0,1,3150,0,1
3196,51,5,0,3,2220,0,1
3197,51,6,2,2,2112,0,0
3198,51,7,0,2,3058,1,0
3199,51,8,1,3,1555,0,1
3200,51,9,4,1,1401,1,1
3201,51,10,0,1,1736,0,1
3202,51,11,2,4,1612,0,1
3203,51,12,2,2,2199,0,0
3204,51,13,0,2,4062,1,0
3205,51,14,0,2,2050,0,1
3206,51,15,3,2,1632,1,1
3207,51,16,2,0,2401,1,1
3208,51,17,2,0,1450,1,1
3209,51,18,1,2,3330,1,0
3210,51,19,1,0,3707,1,1
3211,51,20,2,2,3778,1,0
3212,51,21,3,0,1321,1,1
3213,51,22,3,2,3926,0,0
3214,51,23,2,3,2990,1,0
3215,51,24,5,1,1611,1,1
3216,51,25,1,0,1980,1,1
3217,51,26,3,1,1775,1,1
3218,51,27,2,0,1324,1,1
3219,51,28,1,2,1212,0,1
3220,51,29,2,0,1600,1,1
3221,51,30,2,0,1996,1,1
3222,51,31,0,5,1058,0,1
3223,51,32,3,2,2265,0,0
3224,51,33,1,0,1451,0,0
3225,51,34,2,4,2110,0,1
3226,51,35,1,1,1079,0,0
3227,51,36,2,1,1292,1,1
3228,51,37,0,2,1568,0,1
3229,51,38,0,2,878,0,1
3230,51,39,0,2,1205,0,1
3231,51,40,2,2,2090,1,0
3232,51,41,2,1,1535,1,1
3233,51,42,2,1,3676,0,0
3234,51,43,1,2,1189,0,1
3235,51,44,2,1,1316,1,1
3236,51,45,1,0,3739,1,1
3237,51,46,2,3,2228,1,0
3238,51,47,1,2,2123,1,0
3239,51,48,4,2,2122,1,1
3240,51,49,1,0,3314,1,1
3241,51,50,1,0,1391,1,1
3242,51,51,0,4,1417,0,1
3243,51,52,1,0,2635,0,0
3244,51,53,3,0,1805,1,1
3245,51,54,0,0,1743,0,0
3246,51,55,2,4,1946,0,1
3247,51,56,2,3,1457,0,1
3248,51,57,4,2,1457,1,1
3249,51,58,1,0,2844,1,1
3250,51,59,4,3,2279,1,1
3251,51,60,2,1,1042,1,1
3252,51,61,1,2,2640,1,0
3253,51,62,1,1,2024,1,0
3254,51,63,2,3,1591,0,1
3255,51,64,0,1,1417,0,1
3256,51,65,0,4,2750,0,1
3257,51,66,0,1,2384,0,1
3258,51,67,2,3,1996,0,1
3259,51,68,1,4,1550,0,1
3260,51,69,4,3,2031,1,1
3261,51,70,2,0,3532,1,1
3262,51,71,0,0,1668,0,0
3263,51,72,2,1,1696,0,0
3264,51,73,3,2,2094,1,1
3265,51,74,1,0,2807,1,1
3266,51,75,1,1,1642,1,0
3267,51,76,0,4,1220,0,1
3268,51,77,3,2,1983,1,1
3269,51,78,1,1,1317,1,0
3270,51,79,0,3,1087,0,1
3271,51,80,0,1,1014,1,0
3272,51,81,4,3,1832,0,0
3273,51,82,2,1,1641,0,0
3274,51,83,1,2,1892,0,1
3275,51,84,0,0,1593,1,0
3276,51,85,1,0,2608,1,1
3277,51,86,2,1,1564,1,1
3278,51,87,5,3,1261,1,1
3279,51,88,2,2,2136,0,0
3280,51,89,1,0,1589,1,1
3281,51,90,4,1,1085,1,1
3282,51,91,3,2,2760,1,1
3283,51,92,2,2,1219,1,0
3284,51,93,2,0,1522,1,1
3285,51,94,1,1,1504,1,0
3286,51,95,2,2,1395,1,0
3287,51,96,0,1,1978,0,1
3288,51,97,1,4,1412,0,1
3289,51,98,0,0,1737,1,0
3290,51,99,0,0,2673,0,0
3291,51,100,5,2,1269,1,1
3292,52,1,2,5,1047,1,0
3293,52,2,2,0,1254,1,1
3294,52,3,0,2,1573,1,0
3295,52,4,2,6,699,0,1
3296,52,5,2,3,694,1,0
3297,52,6,2,1,1160,1,1
3298,52,7,5,5,1417,1,0
3299,52,8,5,6,942,0,1
3300,52,9,4,6,1320,0,1
3301,52,10,3,0,2071,0,0
3302,52,11,4,2,926,1,1
3303,52,12,3,4,1224,0,1
3304,52,13,3,0,851,1,1
3305,52,14,0,2,2990,1,0
3306,52,15,3,0,1396,0,0
3307,52,16,3,3,863,1,0
3308,52,17,0,2,1173,0,1
3309,52,18,2,3,1920,0,1
3310,52,19,2,2,754,1,0
3311,52,20,1,1,1163,1,0
3312,52,21,2,2,1475,1,0
3313,52,22,2,2,1072,1,0
3314,52,23,2,0,2280,1,1
3315,52,24,4,2,751,1,1
3316,52,25,0,2,1225,0,1
3317,52,26,3,1,735,1,1
3318,52,27,2,2,1549,1,0
3319,52,28,2,3,1531,0,1
3320,52,29,5,6,683,0,1
3321,52,30,2,2,1239,0,0
3322,52,31,2,1,2483,0,0
3323,52,32,1,0,1374,1,1
3324,52,33,0,2,2408,1,0
3325,52,34,4,5,894,0,1
3326,52,35,2,0,1060,1,1
3327,52,36,4,2,1061,1,1
3328,52,37,3,0,1207,1,1
3329,52,38,3,2,745,0,0
3330,52,39,5,5,886,1,0
3331,52,40,4,2,1894,0,0
3332,52,41,2,4,1241,0,1
3333,52,42,0,2,1304,1,0
3334,52,43,2,0,1405,1,1
3335,52,44,2,3,771,0,1
3336,52,45,6,6,710,1,0
3337,52,46,2,5,1031,1,0
3338,52,47,2,1,855,1,1
3339,52,48,0,3,1187,0,1
3340,52,49,0,2,921,0,1
3341,52,50,1,0,945,1,1
3342,52,51,3,1,1067,1,1
3343,52,52,0,1,1396,0,1
3344,52,53,5,2,700,1,1
3345,52,54,2,1,943,1,1
3346,52,55,2,6,619,0,1
3347,52,56,5,4,999,1,1
3348,52,57,4,5,1226,1,0
3349,52,58,2,2,1539,1,0
3350,52,59,2,0,1074,0,0
3351,52,60,4,0,1020,1,1
3352,52,61,4,2,1188,1,1
3353,52,62,4,3,655,1,1
3354,52,63,4,0,1196,1,1
3355,52,64,4,3,632,1,1
3356,52,65,0,0,1184,0,0
3357,52,66,4,9,903,1,0
3358,52,67,6,2,968,1,1
3359,52,68,4,1,952,1,1
3360,52,69,4,3,867,0,0
3361,52,70,3,0,699,1,1
3362,52,71,5,2,791,1,1
3363,52,72,2,2,637,1,0
3364,52,73,6,5,769,1,1
3365,52,74,2,2,954,1,0
3366,52,75,2,2,1309,1,0
3367,52,76,2,2,1120,1,0
3368,52,77,5,0,1053,1,1
3369,52,78,3,4,970,0,1
3370,52,79,3,3,877,0,0
3371,52,80,3,2,1641,1,1
3372,52,81,2,2,722,0,0
3373,52,82,6,2,685,1,1
3374,52,83,5,2,959,1,1
3375,52,84,6,5,725,1,1
3376,52,85,0,2,923,0,1
3377,52,86,2,2,1231,1,0
3378,52,87,1,5,908,0,1
3379,52,88,2,4,1754,1,0
3380,52,89,0,0,1064,0,0
3381,52,90,4,2,1095,1,1
3382,52,91,4,7,767,0,1
3383,52,92,1,4,649,0,1
3384,52,93,5,2,1056,1,1
3385,52,94,4,6,566,0,1
3386,52,95,2,0,1313,1,1
3387,52,96,0,2,1512,0,1
3388,52,97,0,2,1808,1,0
3389,52,98,2,2,912,0,0
3390,52,99,1,3,893,0,1
3391,52,100,0,2,1421,1,0
3392,53,1,3,2,794,1,1
3393,53,2,2,0,1819,1,1
3394,53,3,1,0,1339,0,0
3395,53,4,1,3,646,0,1
3396,53,5,5,2,1390,1,1
3397,53,6,2,2,1692,0,0
3398,53,7,0,2,1287,1,0
3399,53,8,1,1,1839,0,0
3400,53,9,3,5,1697,1,0
3401,53,10,2,2,1271,1,0
3402,53,11,0,0,1501,0,0
3403,53,12,5,2,1284,1,1
3404,53,13,2,0,1657,1,1
3405,53,14,7,5,1176,0,0
3406,53,15,2,5,883,0,1
3407,53,16,0,2,3126,0,1
3408,53,17,0,0,2337,0,0
3409,53,18,2,0,1491,1,1
3410,53,19,0,5,1527,0,1
3411,53,20,0,5,3143,0,1
3412,53,21,3,0,5699,1,1
3413,53,22,0,2,1762,0,1
3414,53,23,1,5,1353,0,1
3415,53,24,2,3,671,0,1
3416,53,25,0,2,1476,0,1
3417,53,26,0,2,2290,1,0
3418,53,27,3,3,1332,1,0
3419,53,28,0,5,1373,0,1
3420,53,29,1,1,1720,1,0
3421,53,30,0,0,1357,1,0
3422,53,31,2,1,2145,0,0
3423,53,32,2,0,1233,1,1
3424,53,33,2,0,1053,1,1
3425,53,34,5,10,984,0,1
3426,53,35,3,3,812,1,0
3427,53,36,0,0,1395,1,0
3428,53,37,2,5,1908,0,1
3429,53,38,3,0,1253,1,1
3430,53,39,7,3,613,0,0
3431,53,40,3,8,1312,0,1
3432,53,41,2,3,952,1,0
3433,53,42,5,1,2184,0,0
3434,53,43,3,1,1077,1,1
3435,53,44,7,3,1096,1,1
3436,53,45,3,2,1396,1,1
3437,53,46,2,0,1280,0,0
3438,53,47,7,3,956,1,1
3439,53,48,7,2,1911,1,1
3440,53,49,3,0,2699,0,0
3441,53,50,3,2,1496,1,1
3442,53,51,1,3,1725,0,1
3443,53,52,10,6,923,1,1
3444,53,53,0,0,2514,1,0
3445,53,54,2,0,1714,0,0
3446,53,55,2,2,1265,1,0
3447,53,56,2,5,1297,0,1
3448,53,57,1,2,1226,0,1
3449,53,58,3,0,1295,1,1
3450,53,59,5,3,1528,1,1
3451,53,60,3,0,1066,1,1
3452,53,61,0,3,1612,0,1
3453,53,62,0,2,2026,0,1
3454,53,63,6,3,1844,1,1
3455,53,64,5,5,1379,0,0
3456,53,65,0,2,1470,0,1
3457,53,66,3,1,1876,1,1
3458,53,67,0,2,1515,0,1
3459,53,68,3,0,1145,1,1
3460,53,69,0,5,1075,0,1
3461,53,70,0,1,827,0,1
3462,53,71,6,7,1163,0,1
3463,53,72,0,0,891,0,0
3464,53,73,5,0,2005,1,1
3465,53,74,1,0,2215,0,0
3466,53,75,5,3,1380,1,1
3467,53,76,2,0,4872,0,0
3468,53,77,0,3,796,0,1
3469,53,78,5,0,1026,1,1
3470,53,79,6,1,1510,0,0
3471,53,80,2,0,1232,1,1
3472,53,81,7,3,1012,1,1
3473,53,82,2,2,1212,1,0
3474,53,83,5,0,925,1,1
3475,53,84,0,0,865,0,0
3476,53,85,1,0,1283,1,1
3477,53,86,5,0,742,1,1
3478,53,87,7,2,980,1,1
3479,53,88,5,6,1034,0,1
3480,53,89,3,6,1507,0,1
3481,53,90,0,2,2428,1,0
3482,53,91,0,0,1568,1,0
3483,53,92,0,2,1603,1,0
3484,53,93,0,0,1347,1,0
3485,53,94,0,2,833,0,1
3486,53,95,10,5,817,1,1
3487,53,96,1,2,1051,0,1
3488,53,97,3,0,1137,1,1
3489,53,98,0,0,1618,0,0
3490,53,99,5,3,810,1,1
3491,53,100,0,2,1144,0,1
3492,54,1,4,2,1181,0,0
3493,54,2,2,4,1670,0,1
3494,54,3,10,8,2378,0,0
3495,54,4,2,10,1666,0,1
3496,54,5,4,2,1679,1,1
3497,54,6,2,2,1436,1,0
3498,54,7,2,10,929,0,1
3499,54,8,2,10,2414,1,0
3500,54,9,2,5,1220,0,1
3501,54,10,2,4,1845,0,1
3502,54,11,2,2,1454,1,0
3503,54,12,8,5,1911,1,1
3504,54,13,9,2,1724,0,0
3505,54,14,2,10,5596,1,0
3506,54,15,5,8,1218,0,1
3507,54,16,10,2,1409,1,1
3508,54,17,10,2,1850,0,0
3509,54,18,4,4,1227,0,0
3510,54,19,10,2,3178,0,0
3511,54,20,2,8,1199,0,1
3512,54,21,2,10,1326,0,1
3513,54,22,0,8,2499,1,0
3514,54,23,5,8,1191,0,1
3515,54,24,10,5,1493,1,1
3516,54,25,4,10,1621,1,0
3517,54,26,2,10,1082,0,1
3518,54,27,5,5,1385,1,0
3519,54,28,5,2,2354,0,0
3520,54,29,2,2,1126,1,0
3521,54,30,8,4,2809,0,0
3522,54,31,2,2,1399,1,0
3523,54,32,8,8,1283,0,0
3524,54,33,5,8,2076,0,1
3525,54,34,8,2,1490,1,1
3526,54,35,8,0,1386,0,0
3527,54,36,2,2,1081,0,0
3528,54,37,5,10,821,0,1
3529,54,38,4,2,2005,1,1
3530,54,39,2,2,2213,0,0
3531,54,40,9,10,1105,0,1
3532,54,41,0,8,1409,0,1
3533,54,42,9,10,1366,0,1
3534,54,43,2,10,1410,0,1
3535,54,44,2,4,1371,0,1
3536,54,45,10,9,1551,1,1
3537,54,46,8,10,1308,1,0
3538,54,47,8,8,3633,0,0
3539,54,48,10,2,1087,1,1
3540,54,49,10,2,1255,1,1
3541,54,50,10,5,1120,1,1
3542,54,51,4,8,1176,1,0
3543,54,52,5,8,1023,0,1
3544,54,53,4,8,1734,1,0
3545,54,54,8,2,923,1,1
3546,54,55,10,2,1015,1,1
3547,54,56,5,2,2136,1,1
3548,54,57,10,2,1068,1,1
3549,54,58,4,5,2190,1,0
3550,54,59,8,10,2429,1,0
3551,54,60,8,8,1620,0,0
3552,54,61,2,10,1162,0,1
3553,54,62,2,2,2106,0,0
3554,54,63,4,10,1970,0,1
3555,54,64,5,2,1703,0,0
3556,54,65,2,6,1412,0,1
3557,54,66,2,8,1511,0,1
3558,54,67,4,2,1182,0,0
3559,54,68,2,2,2138,1,0
3560,54,69,5,0,1449,0,0
3561,54,70,2,2,1196,0,0
3562,54,71,2,2,1035,1,0
3563,54,72,10,8,2983,1,1
3564,54,73,2,10,1523,0,1
3565,54,74,8,2,1625,0,0
3566,54,75,8,4,1059,1,1
3567,54,76,2,2,1231,0,0
3568,54,77,8,2,1364,1,1
3569,54,78,0,5,2004,1,0
3570,54,79,8,4,1866,1,1
3571,54,80,10,10,1277,0,0
3572,54,81,6,2,1744,1,1
3573,54,82,4,10,1107,0,1
3574,54,83,4,2,1212,0,0
3575,54,84,2,2,994,1,0
3576,54,85,6,2,1285,1,1
3577,54,86,2,2,1976,0,0
3578,54,87,4,8,948,0,1
3579,54,88,10,10,630,0,0
3580,54,89,2,10,1382,0,1
3581,54,90,0,4,2764,0,1
3582,54,91,2,9,1606,1,0
3583,54,92,5,8,3232,1,0
3584,54,93,8,8,1829,0,0
3585,54,94,10,10,2020,0,0
3586,54,95,2,10,1133,0,1
3587,54,96,6,10,1135,0,1
3588,54,97,2,10,777,0,1
3589,54,98,2,6,1550,1,0
3590,54,99,4,6,1219,0,1
3591,54,100,2,10,1178,0,1
3592,55,1,10,7,1255,1,1
3593,55,2,3,7,1389,0,1
3594,55,3,4,0,3494,1,1
3595,55,4,5,4,1508,1,1
3596,55,5,8,7,7955,0,0
3597,55,6,3,5,4591,1,0
3598,55,7,3,3,2729,1,0
3599,55,8,0,2,3938,0,1
3600,55,9,4,7,1536,0,1
3601,55,10,5,7,1865,0,1
3602,55,11,4,5,2077,0,1
3603,55,12,10,5,2073,1,1
3604,55,13,8,7,3269,1,1
3605,55,14,5,8,2273,0,1
3606,55,15,7,5,2094,1,1
3607,55,16,5,4,3674,1,1
3608,55,17,0,4,2462,0,1
3609,55,18,7,4,3920,1,1
3610,55,19,7,7,1778,0,0
3611,55,20,5,10,1651,0,1
3612,55,21,6,10,3736,0,1
3613,55,22,2,1,2389,0,0
3614,55,23,6,5,2268,1,1
3615,55,24,6,2,2731,1,1
3616,55,25,5,4,3161,0,0
3617,55,26,8,4,1783,1,1
3618,55,27,5,1,2991,1,1
3619,55,28,7,5,3748,1,1
3620,55,29,5,6,2090,0,1
3621,55,30,5,7,4233,0,1
3622,55,31,6,10,2313,0,1
3623,55,32,10,8,1798,1,1
3624,55,33,8,6,2495,0,0
3625,55,34,6,7,4043,0,1
3626,55,35,5,7,9229,0,1
3627,55,36,2,1,2816,1,1
3628,55,37,4,1,3113,1,1
3629,55,38,7,7,2459,1,0
3630,55,39,5,8,1849,0,1
3631,55,40,1,0,5002,1,1
3632,55,41,2,2,1570,0,0
3633,55,42,2,2,1877,0,0
3634,55,43,8,9,4958,1,0
3635,55,44,10,5,1627,1,1
3636,55,45,5,7,1961,0,1
3637,55,46,4,7,6561,0,1
3638,55,47,5,6,7927,0,1
3639,55,48,8,7,1483,0,0
3640,55,49,0,2,6672,0,1
3641,55,50,4,4,3709,1,0
3642,55,51,4,7,1212,0,1
3643,55,52,3,7,2303,0,1
3644,55,53,8,5,1639,1,1
3645,55,54,8,8,5889,1,0
3646,55,55,7,10,1733,0,1
3647,55,56,8,3,4577,1,1
3648,55,57,5,8,1941,0,1
3649,55,58,5,10,1610,0,1
3650,55,59,4,2,2584,1,1
3651,55,60,4,3,7990,1,1
3652,55,61,5,6,4358,1,0
3653,55,62,8,5,1838,1,1
3654,55,63,0,2,8818,1,0
3655,55,64,4,8,1395,0,1
3656,55,65,5,4,5693,0,0
3657,55,66,5,8,1774,0,1
3658,55,67,6,3,1410,1,1
3659,55,68,5,6,1309,0,1
3660,55,69,4,2,4383,0,0
3661,55,70,5,0,1923,1,1
3662,55,71,10,7,1371,1,1
3663,55,72,1,0,2392,1,1
3664,55,73,4,8,1159,0,1
3665,55,74,4,6,1485,0,1
3666,55,75,7,9,1107,1,0
3667,55,76,3,5,1485,0,1
3668,55,77,0,4,2532,0,1
3669,55,78,4,2,2114,1,1
3670,55,79,6,4,1244,1,1
3671,55,80,7,7,7518,1,0
3672,55,81,2,2,5400,0,0
3673,55,82,9,7,2061,1,1
3674,55,83,6,7,2624,1,0
3675,55,84,7,10,1372,0,1
3676,55,85,7,6,3296,1,1
3677,55,86,3,4,1663,1,0
3678,55,87,5,4,1411,0,0
3679,55,88,1,2,1805,1,0
3680,55,89,3,5,1562,0,1
3681,55,90,7,3,1077,1,1
3682,55,91,7,10,1768,0,1
3683,55,92,5,4,1985,1,1
3684,55,93,5,5,2634,1,0
3685,55,94,6,3,1318,1,1
3686,55,95,5,10,1096,0,1
3687,55,96,7,3,1578,1,1
3688,55,97,7,3,1237,1,1
3689,55,98,9,8,4793,1,1
3690,55,99,0,2,1303,0,1
3691,55,100,10,6,1008,1,1
3692,56,1,3,0,2165,1,1
3693,56,2,2,1,2655,0,0
3694,56,3,1,1,1426,1,0
3695,56,4,2,1,3326,0,0
3696,56,5,1,3,1843,0,1
3697,56,6,0,0,2443,0,0
3698,56,7,0,1,1774,1,0
3699,56,8,4,4,1349,0,0
3700,56,9,3,2,1570,1,1
3701,56,10,0,2,1666,0,1
3702,56,11,0,0,3366,1,0
3703,56,12,3,1,3765,0,0
3704,56,13,1,1,2092,1,0
3705,56,14,2,3,2966,1,0
3706,56,15,1,1,6293,1,0
3707,56,16,1,0,2268,1,1
3708,56,17,0,0,1979,1,0
3709,56,18,3,1,1981,1,1
3710,56,19,0,1,3142,1,0
3711,56,20,0,2,4891,0,1
3712,56,21,2,0,2721,1,1
3713,56,22,0,0,2072,1,0
3714,56,23,1,0,2386,0,0
3715,56,24,0,4,1440,0,1
3716,56,25,3,2,3470,1,1
3717,56,26,0,5,1365,0,1
3718,56,27,1,1,1210,1,0
3719,56,28,0,4,1806,0,1
3720,56,29,0,3,848,0,1
3721,56,30,0,1,1469,1,0
3722,56,31,3,2,1388,1,1
3723,56,32,3,4,2195,0,1
3724,56,33,3,1,4960,1,1
3725,56,34,0,0,1445,0,0
3726,56,35,2,2,1265,0,0
3727,56,36,3,4,1082,0,1
3728,56,37,1,5,3646,0,1
3729,56,38,1,2,1965,0,1
3730,56,39,3,4,1201,0,1
3731,56,40,1,1,2047,1,0
3732,56,41,2,0,1055,1,1
3733,56,42,4,4,933,0,0
3734,56,43,1,0,1550,1,1
3735,56,44,4,3,1412,1,1
3736,56,45,4,2,4080,0,0
3737,56,46,0,4,2075,0,1
3738,56,47,0,3,1651,0,1
3739,56,48,0,2,2488,0,1
3740,56,49,0,1,1432,0,1
3741,56,50,1,2,3250,0,1
3742,56,51,2,0,1239,1,1
3743,56,52,2,1,2328,0,0
3744,56,53,1,0,1485,1,1
3745,56,54,2,2,2336,1,0
3746,56,55,3,1,2785,1,1
3747,56,56,2,1,1331,1,1
3748,56,57,0,1,4826,1,0
3749,56,58,2,4,1415,0,1
3750,56,59,2,2,1522,1,0
3751,56,60,3,4,2027,1,0
3752,56,61,1,1,5082,0,0
3753,56,62,1,0,984,0,0
3754,56,63,2,0,2290,1,1
3755,56,64,1,3,3171,0,1
3756,56,65,2,4,1685,0,1
3757,56,66,2,2,5317,1,0
3758,56,67,2,2,2668,0,0
3759,56,68,1,2,1078,0,1
3760,56,69,0,3,852,0,1
3761,56,70,2,2,1001,0,0
3762,56,71,3,0,1176,1,1
3763,56,72,1,2,1251,0,1
3764,56,73,0,2,3748,1,0
3765,56,74,4,1,2194,1,1
3766,56,75,2,2,2081,0,0
3767,56,76,0,3,1610,1,0
3768,56,77,3,3,2367,1,0
3769,56,78,2,0,1407,1,1
3770,56,79,2,4,1526,0,1
3771,56,80,4,2,1063,1,1
3772,56,81,0,1,2342,0,1
3773,56,82,0,2,974,0,1
3774,56,83,0,3,3531,0,1
3775,56,84,0,4,1718,0,1
3776,56,85,0,3,1048,0,1
3777,56,86,1,1,1602,0,0
3778,56,87,2,3,3800,1,0
3779,56,88,2,1,4639,0,0
3780,56,89,0,1,1101,1,0
3781,56,90,3,1,2050,1,1
3782,56,91,2,2,5383,1,0
3783,56,92,0,1,1646,0,1
3784,56,93,2,4,1463,0,1
3785,56,94,0,2,1683,1,0
3786,56,95,1,3,2365,0,1
3787,56,96,4,1,1146,1,1
3788,56,97,2,0,2567,0,0
3789,56,98,1,4,2975,0,1
3790,56,99,1,1,6008,1,0
3791,56,100,0,1,1868,0,1
